aX,aY,aZ,gX,gY,gZ
-0.010,10.810,-11.280,-26.562,17.437,-44.813
-0.010,10.810,-11.280,-16.687,12.375,-31.750
0.570,7.570,-11.420,-16.687,12.375,-31.750
-0.440,10.310,-10.740,3.438,13.625,-1.062
-0.660,11.960,-11.330,-1.250,8.500,5.062
-0.660,11.960,-11.330,-1.250,8.500,5.062
-0.110,11.010,-11.420,8.938,5.750,-2.125
-0.180,10.140,-11.020,24.625,1.625,3.188
-0.390,10.830,-10.950,28.437,-2.438,9.750
-0.390,10.830,-10.950,20.687,-3.625,9.125
-0.430,11.150,-11.120,20.687,-3.625,9.125
-0.560,11.320,-11.880,9.438,-4.625,5.125
-0.390,11.200,-11.710,-0.625,-8.625,-0.437
-0.390,11.200,-11.710,-8.625,-9.438,-3.063
-0.240,11.010,-11.390,-8.625,-9.438,-3.063
-0.220,10.860,-11.530,-10.250,-2.438,-1.937
-0.290,10.520,-11.880,-8.938,1.000,1.375
-0.290,10.520,-11.880,-6.687,0.187,5.562
-0.260,10.540,-11.770,-6.687,0.187,5.562
-0.370,10.600,-11.680,-4.625,-2.625,8.313
-0.260,10.580,-11.460,-5.562,-4.875,8.875
-0.030,10.480,-11.890,-4.312,-4.125,10.563
-0.030,10.480,-11.890,0.625,-6.500,13.250
-0.180,10.780,-12.160,0.625,-6.500,13.250
-0.240,10.980,-12.060,1.500,-14.750,12.000
-0.160,10.860,-11.870,3.125,-23.062,8.063
-0.160,10.860,-11.870,6.562,-27.625,4.500
-0.220,10.820,-11.010,6.562,-27.625,4.500
-0.250,10.720,-10.450,1.562,-25.937,0.812
-0.210,10.360,-10.510,-1.937,-17.500,-2.625
-0.290,10.240,-10.720,-3.313,-10.563,-1.937
-0.290,10.240,-10.720,-3.313,-10.563,-1.937
-0.650,10.300,-10.850,-5.312,-8.500,0.375
-0.670,10.440,-11.030,-5.062,-6.812,1.562
-0.690,10.570,-11.160,-1.062,-4.125,1.750
-0.690,10.570,-11.160,1.562,-2.938,1.812
-0.660,10.800,-11.190,1.562,-2.938,1.812
-0.770,10.930,-10.770,2.250,-4.250,0.687
-0.750,11.070,-10.230,2.125,-3.625,-0.937
-0.750,11.070,-10.230,2.125,-3.625,-0.937
-0.620,11.200,-9.570,2.563,2.125,-2.875
-0.500,11.380,-8.960,10.563,14.563,-4.687
-0.530,10.810,-9.180,10.313,19.125,-6.000
-0.530,10.810,-9.180,10.313,19.125,-6.000
-0.670,11.000,-8.900,-7.375,11.750,-3.188
-0.670,11.000,-8.900,-12.000,8.125,-2.938
-0.680,11.000,-8.910,-12.000,8.125,-2.938
-0.570,11.310,-8.410,-11.000,1.937,-5.250
-0.480,10.770,-8.520,-13.250,-7.375,-8.438
-0.480,10.770,-8.520,-13.250,-7.375,-8.438
-0.460,10.410,-8.370,-6.000,-16.250,-8.563
-0.570,10.670,-7.940,-1.875,-27.375,-4.000
-0.570,10.670,-7.940,-7.687,-35.625,-1.687
-0.460,11.080,-6.960,-7.687,-35.625,-1.687
-0.530,10.580,-6.980,-7.812,-31.375,-2.750
-0.530,10.580,-6.980,-7.812,-31.375,-2.750
-0.440,10.110,-6.970,-9.063,-27.375,0.000
-0.790,9.970,-6.870,-4.375,-20.312,4.750
-1.320,9.960,-7.860,2.750,-10.813,7.187
-1.320,9.960,-7.860,2.750,-10.813,7.187
-1.440,10.410,-8.750,5.250,-6.687,6.562
-1.430,11.310,-9.610,4.375,-9.188,0.812
-1.430,11.310,-9.610,4.375,-9.188,0.812
-1.190,12.300,-10.370,-7.437,-17.750,-8.875
-0.330,13.160,-10.930,-23.312,-27.500,-20.125
-0.120,13.280,-10.450,-31.812,-34.500,-27.500
-0.120,13.280,-10.450,-31.812,-34.500,-27.500
-0.180,12.880,-9.670,-40.000,-38.813,-31.000
-0.180,12.880,-9.670,-42.125,-33.688,-28.937
-0.820,10.370,-8.800,-42.125,-33.688,-28.937
-1.060,9.820,-8.720,-24.000,-15.938,-20.500
-1.060,9.820,-8.720,-7.750,1.125,-9.063
-1.430,9.870,-8.770,-7.750,1.125,-9.063
-1.770,10.430,-9.010,-8.750,14.688,-2.938
-1.340,12.380,-10.380,-14.438,26.312,-1.000
-1.340,12.380,-10.380,-14.438,26.312,-1.000
-1.130,13.820,-11.200,-25.062,32.188,-2.063
-1.130,13.820,-11.200,-41.063,31.750,-8.500
-0.650,14.220,-11.970,-41.063,31.750,-8.500
-0.290,14.050,-12.100,-47.438,20.375,-13.625
-0.620,11.150,-10.130,-41.813,-3.563,-16.375
-0.620,11.150,-10.130,-41.813,-3.563,-16.375
-1.140,10.060,-8.640,-30.250,-28.937,-13.563
-1.670,8.690,-7.890,-12.188,-42.563,-10.938
-1.670,8.690,-7.890,-12.188,-42.563,-10.938
-2.030,8.390,-7.910,-2.188,-47.563,-7.875
-2.170,10.440,-10.450,-2.375,-45.625,-6.187
-2.170,10.440,-10.450,-2.375,-45.625,-6.187
-1.930,12.220,-12.000,-5.437,-47.563,-7.875
-1.920,13.660,-12.330,-4.687,-54.000,-12.313
-1.920,13.660,-12.330,-4.687,-54.000,-12.313
-1.820,13.530,-12.110,-5.312,-60.250,-19.187
-1.820,13.530,-12.110,-11.250,-57.188,-15.813
-1.420,12.200,-11.980,-11.250,-57.188,-15.813
-1.740,11.560,-10.810,-13.188,-50.500,-3.125
-1.810,10.360,-9.780,-17.562,-42.000,4.625
-1.810,10.360,-9.780,-17.562,-42.000,4.625
-1.590,9.350,-9.690,-15.563,-24.812,12.000
-1.640,8.600,-8.900,-4.375,-4.062,20.812
-1.640,8.600,-8.900,-4.375,-4.062,20.812
-1.870,8.810,-9.220,-1.625,13.500,28.125
-2.130,9.980,-11.060,1.750,25.375,29.500
-2.870,13.840,-12.370,-1.937,27.312,21.375
-2.870,13.840,-12.370,-24.062,26.937,4.687
-2.550,14.110,-12.600,-24.062,26.937,4.687
-1.970,13.580,-12.530,-37.750,30.625,-8.938
-1.970,13.580,-12.530,-37.750,30.625,-8.938
-1.870,13.040,-11.910,-37.688,33.063,-17.187
-1.980,10.190,-10.650,-40.313,37.188,-26.312
-1.850,9.370,-11.030,-42.125,46.688,-29.000
-1.850,9.370,-11.030,-42.125,46.688,-29.000
-1.310,9.860,-11.330,-41.750,52.500,-22.187
-1.310,9.860,-11.330,-41.750,52.500,-22.187
-1.380,11.150,-11.620,-46.188,49.500,-18.062
-0.570,12.240,-12.680,-32.938,40.500,-8.063
-0.570,12.240,-12.680,-15.813,38.250,11.875
-0.710,12.650,-13.170,-15.813,38.250,11.875
-1.290,13.280,-12.690,-10.500,26.875,24.687
-1.290,13.280,-12.690,-1.250,18.937,20.375
-1.450,13.160,-11.580,-1.250,18.937,20.375
-1.450,11.020,-12.080,4.187,18.625,7.062
-1.450,11.020,-12.080,4.187,18.625,7.062
-1.800,11.040,-12.050,6.625,9.563,-4.250
-1.800,11.610,-11.660,9.063,-6.437,-16.750
-1.600,12.220,-11.750,8.813,-16.625,-30.937
-1.600,12.220,-11.750,8.813,-16.625,-30.937
-1.140,12.820,-12.910,17.562,-21.750,-41.625
-1.140,12.820,-12.910,28.062,-24.562,-45.000
-0.930,12.470,-13.340,28.062,-24.562,-45.000
-1.120,12.270,-13.390,36.250,-25.937,-36.188
-1.400,12.170,-13.510,42.438,-23.250,-16.875
-1.400,12.170,-13.510,42.438,-23.250,-16.875
-1.590,12.040,-13.480,44.625,-23.125,7.250
-2.370,11.610,-13.270,46.375,-24.875,27.812
-2.370,11.610,-13.270,46.375,-24.875,27.812
-2.740,11.550,-12.880,45.000,-21.187,37.750
-2.740,11.550,-12.880,39.313,-13.688,39.438
-2.650,12.110,-13.160,39.313,-13.688,39.438
-2.480,12.410,-13.690,39.813,-6.000,34.875
-2.580,12.970,-14.070,42.750,-3.250,30.687
-2.580,12.970,-14.070,40.813,-3.125,23.437
-2.730,13.080,-13.820,40.813,-3.125,23.437
-1.830,12.820,-14.970,35.375,2.625,18.375
-1.830,12.820,-14.970,38.063,5.500,23.250
-1.620,13.100,-15.140,38.063,5.500,23.250
-1.420,13.170,-15.260,44.938,6.750,32.375
-1.580,13.150,-15.090,46.688,1.937,38.250
-1.580,13.150,-15.090,38.375,-9.875,35.563
-2.210,11.990,-14.930,38.375,-9.875,35.563
-2.110,10.990,-14.800,32.063,-19.937,27.500
-2.110,10.990,-14.800,32.063,-19.937,27.500
-1.860,10.120,-14.530,25.000,-30.437,22.062
-1.790,9.750,-13.850,24.500,-36.750,25.375
-1.790,9.750,-13.850,23.125,-31.625,38.625
-1.470,11.160,-13.860,23.125,-31.625,38.625
-1.950,12.120,-13.550,18.062,-15.813,58.938
-1.950,12.120,-13.550,18.062,-15.813,58.938
-2.230,12.890,-13.520,1.187,3.500,68.188
-2.300,12.950,-13.780,-18.000,20.125,59.875
-2.300,12.950,-13.780,-18.000,20.125,59.875
-2.190,11.670,-12.710,-29.562,31.375,42.750
-1.580,10.730,-12.240,-44.063,38.813,19.062
-1.580,10.730,-12.240,-56.750,42.938,0.500
-0.610,9.530,-12.160,-56.750,42.938,0.500
-0.110,8.270,-11.290,-53.875,45.188,-6.125
-0.110,8.270,-11.290,-53.875,45.188,-6.125
0.040,8.390,-10.730,-35.438,37.313,-5.250
0.000,9.090,-11.460,-18.437,34.563,-1.187
-0.300,10.490,-12.860,-14.313,37.500,6.687
-0.300,10.490,-12.860,-14.313,37.500,6.687
-1.130,12.360,-12.550,-15.938,35.750,8.438
-1.130,12.360,-12.550,-26.250,28.687,-3.688
-1.210,13.170,-12.070,-26.250,28.687,-3.688
-0.520,12.060,-12.390,-44.563,25.375,-19.937
0.020,10.430,-13.140,-44.688,15.500,-23.625
-0.280,9.470,-11.200,-24.687,-5.312,-16.625
-0.280,9.470,-11.200,-24.687,-5.312,-16.625
-0.610,8.630,-9.440,-17.062,-26.062,-11.063
-0.610,8.630,-9.440,-22.562,-18.187,-8.063
-0.410,7.750,-9.320,-22.562,-18.187,-8.063
0.190,7.700,-10.270,-25.000,15.000,2.750
0.190,7.700,-10.270,-23.125,39.000,18.812
0.150,9.570,-11.410,-23.125,39.000,18.812
0.250,11.220,-11.760,-15.313,48.813,27.625
0.250,11.220,-11.760,-15.313,48.813,27.625
0.100,12.430,-11.640,-10.188,36.813,28.875
-0.030,13.230,-12.030,-12.563,13.000,20.437
-0.030,13.230,-12.030,-12.563,13.000,20.437
0.090,13.350,-11.180,-16.625,-17.312,5.000
0.390,12.580,-10.070,-22.125,-55.063,-12.688
0.490,11.120,-9.320,-19.062,-83.063,-27.375
0.490,11.120,-9.320,-19.062,-83.063,-27.375
0.210,10.450,-8.720,-12.313,-99.750,-31.125
0.210,10.450,-8.720,-12.313,-99.750,-31.125
-0.470,10.280,-8.370,-3.375,-78.938,-18.562
-0.800,10.210,-8.610,2.438,-44.188,-5.500
-1.320,10.280,-8.910,-5.687,-13.438,5.187
-1.320,10.280,-8.910,-9.125,7.625,11.188
-2.180,12.450,-9.120,-9.125,7.625,11.188
-2.160,13.650,-9.560,-2.938,12.438,15.688
-2.160,13.650,-9.560,-2.938,12.438,15.688
-2.080,14.890,-10.560,-3.188,5.750,18.875
-2.080,14.890,-10.560,-3.188,5.750,18.875
-1.500,15.420,-10.650,-1.687,-6.625,19.062
-0.350,13.770,-8.220,-3.063,-24.500,15.563
0.140,12.190,-7.540,-7.437,-36.188,10.438
0.140,12.190,-7.540,-7.437,-36.188,10.438
0.520,10.770,-6.320,-0.562,-31.187,9.188
0.520,10.770,-6.320,10.063,1.937,16.562
0.540,10.030,-5.560,10.063,1.937,16.562
-0.370,12.270,-8.660,14.563,45.500,31.687
-0.820,14.010,-10.500,14.063,72.750,38.313
-0.820,14.010,-10.500,9.500,73.063,27.000
-1.060,15.410,-11.490,9.500,73.063,27.000
-0.620,15.730,-11.420,1.937,50.500,5.625
-0.620,15.730,-11.420,1.937,50.500,5.625
-0.020,13.820,-9.570,-1.125,19.687,-11.938
0.230,12.330,-7.800,1.562,2.688,-21.875
0.230,12.330,-7.800,7.750,6.250,-21.812
0.410,11.080,-5.700,7.750,6.250,-21.812
0.160,10.480,-4.920,10.188,28.125,-16.062
0.160,10.480,-4.920,10.188,28.125,-16.062
0.370,9.910,-5.230,6.000,59.500,-8.125
0.370,9.910,-5.230,-6.562,78.188,-0.437
0.240,10.230,-6.190,-6.562,78.188,-0.437
0.140,11.160,-7.420,-8.563,80.000,2.438
0.080,11.610,-7.610,-1.625,71.750,-0.062
0.080,11.610,-7.610,-3.000,63.750,-1.062
-0.390,12.370,-8.450,-3.000,63.750,-1.062
-0.340,12.950,-8.790,-0.562,56.188,-1.250
-0.340,12.950,-8.790,-0.562,56.188,-1.250
-0.220,12.780,-8.930,2.500,40.125,-4.750
-0.660,12.020,-8.000,1.687,13.250,-10.188
-0.660,12.020,-8.000,1.687,13.250,-10.188
-0.120,11.450,-6.910,5.187,-13.625,-20.687
0.340,11.010,-6.090,4.312,-18.875,-29.437
0.340,11.010,-6.090,-3.063,-3.938,-28.625
0.350,10.640,-5.860,-3.063,-3.938,-28.625
0.780,11.150,-6.970,-6.375,13.563,-24.750
0.780,11.150,-6.970,-6.375,13.563,-24.750
0.660,11.660,-7.640,0.062,20.250,-20.062
0.520,12.230,-8.320,12.375,21.687,-14.500
0.410,12.690,-9.340,15.563,23.875,-7.437
0.410,12.690,-9.340,15.563,23.875,-7.437
-0.010,12.870,-10.310,15.938,19.437,-3.125
-0.010,12.870,-10.310,15.938,19.437,-3.125
-0.080,12.580,-10.140,15.000,0.875,-3.750
-0.130,12.310,-9.400,15.250,-24.687,-8.875
-0.090,11.900,-9.020,13.563,-38.000,-13.313
0.120,11.250,-8.790,9.750,-38.375,-14.500

0.140,11.470,-9.410,8.688,-32.438,-11.688
0.140,11.470,-9.410,8.688,-32.438,-11.688
0.130,11.960,-9.940,12.563,-27.562,-6.812
0.170,12.470,-10.130,16.062,-28.875,-2.000
-0.220,12.830,-10.530,17.562,-32.063,2.563
-0.220,12.830,-10.530,19.187,-37.063,3.813
-0.420,12.610,-10.330,19.187,-37.063,3.813
-0.700,12.320,-10.340,21.125,-40.313,3.063
-0.700,12.320,-10.340,21.125,-40.313,3.063
-0.840,11.920,-10.440,20.750,-40.750,1.125
-0.830,11.530,-9.380,18.562,-42.813,-1.125
-0.660,11.490,-9.090,14.063,-39.000,-2.438
-0.660,11.490,-9.090,14.063,-39.000,-2.438
-0.520,11.290,-9.270,5.875,-26.312,-2.438
-0.630,11.770,-10.470,-0.375,-9.938,1.250
-0.630,11.770,-10.470,-0.375,-9.938,1.250
-0.850,12.150,-11.030,-2.188,2.438,6.187
-0.890,12.150,-11.300,-3.313,9.063,8.250
-0.890,12.150,-11.300,-3.313,9.063,8.250
-0.810,12.210,-11.220,-4.312,12.063,7.937
-0.650,11.680,-10.530,-5.687,13.438,6.687
-0.650,11.680,-10.530,-5.687,13.438,6.687
-0.400,11.440,-10.530,-7.375,17.250,5.562
-0.310,11.420,-10.460,-7.687,19.625,6.000
-0.310,11.420,-10.460,-7.687,19.625,6.000
-0.190,11.360,-10.350,-5.000,17.500,6.562
-0.060,11.350,-10.280,-1.812,13.750,7.562
-0.150,11.450,-10.160,0.625,7.187,9.375
-0.150,11.450,-10.160,0.625,7.187,9.375
-0.260,11.500,-10.040,1.937,-1.125,9.375
-0.260,11.500,-10.040,1.000,-7.062,6.875
-0.490,11.380,-10.220,1.000,-7.062,6.875
-0.290,11.390,-10.760,-0.625,-10.313,3.313
-0.280,11.530,-10.460,0.500,-11.688,1.562
0.010,0.690,0.030,3.500,-10.313,1.500
0.010,0.690,0.030,3.500,-10.313,1.500
0.080,0.650,-0.120,4.000,-7.125,0.500
0.080,0.650,-0.120,4.000,-7.125,0.500
0.120,0.760,-0.150,4.750,-3.375,-0.750
0.120,0.760,-0.150,5.437,-0.812,-1.187
0.120,0.760,-0.040,5.437,-0.812,-1.187
0.110,0.490,0.150,6.125,-1.875,-1.812
0.000,0.770,0.020,5.500,-4.687,-1.375
0.000,0.770,0.020,5.500,-4.687,-1.375
-0.090,0.810,0.010,3.313,-3.188,0.875
-0.090,0.810,0.010,3.313,-3.188,0.875
-0.150,0.920,-0.230,-0.625,-0.875,2.063
-0.150,0.920,-0.230,-5.187,3.000,2.375
-0.140,0.870,-0.460,-5.187,3.000,2.375
-0.060,0.910,-0.890,-5.750,5.062,1.812
-0.060,0.910,-0.890,-5.750,5.062,1.812
-0.060,0.970,-0.380,-1.500,4.625,2.250
0.010,0.770,-0.140,0.937,3.375,1.062
0.010,0.770,-0.140,0.937,3.375,1.062
0.130,0.640,0.150,1.375,3.250,-1.062
0.130,0.640,0.150,1.875,3.063,-1.875
0.230,0.420,0.670,1.875,3.063,-1.875
0.160,0.530,0.340,1.437,2.500,-2.063
0.060,0.850,0.030,3.938,1.625,-1.687
0.060,0.850,0.030,3.938,1.625,-1.687
0.040,1.070,-0.290,4.312,-0.437,-1.437
0.040,1.070,-0.290,4.312,-0.437,-1.437
-0.020,0.950,-0.540,2.563,-2.625,-1.625
-0.020,0.950,-0.540,0.750,-4.312,-1.437
0.000,0.840,-0.580,0.750,-4.312,-1.437
-0.060,1.010,-0.590,-0.062,-2.813,0.187
-0.070,1.020,-0.400,-0.062,-1.437,1.312
-0.070,1.020,-0.400,-0.312,-1.125,0.687
-0.100,0.730,0.010,-0.312,-1.125,0.687
-0.060,0.590,0.430,0.625,-0.875,0.312
-0.010,0.480,0.680,1.187,-0.687,-0.875
-0.010,0.480,0.680,1.187,-0.687,-0.875
0.150,0.430,0.600,-0.125,1.250,-1.750
0.060,0.750,0.090,-0.437,2.313,-1.187
0.060,0.750,0.090,-0.625,1.187,-0.375
-0.080,0.810,-0.260,-0.625,1.187,-0.375
-0.070,0.960,-0.420,-0.062,-1.187,-1.062
-0.010,0.900,-0.200,-0.437,-1.500,-1.875
0.040,0.740,-0.130,-3.313,-0.125,-2.750
0.090,0.670,-0.020,-3.688,2.000,-2.938
0.090,0.670,-0.020,-3.688,2.000,-2.938
0.110,0.700,0.180,-2.750,3.125,-1.750
0.110,0.700,0.180,-2.750,3.125,-1.750
0.030,0.690,0.080,-1.312,4.875,-0.750
0.020,0.660,0.040,0.187,6.250,0.437
0.020,0.660,0.040,0.187,6.250,0.437
0.090,0.760,0.100,1.875,3.938,0.562
0.070,0.860,-0.070,3.125,3.625,1.500
0.070,0.860,-0.070,3.125,3.625,1.500
-0.060,0.890,-0.100,4.375,4.312,3.063
-0.140,0.860,-0.270,2.313,5.375,4.312
-0.140,0.860,-0.270,2.313,5.375,4.312
-0.170,1.010,-0.320,0.687,7.750,5.000
-0.130,1.070,-0.310,-0.500,8.063,3.750
0.090,0.840,-0.140,-4.562,5.500,1.125
0.090,0.840,-0.140,-4.562,5.500,1.125
0.140,0.740,-0.180,-5.500,5.000,-1.000
0.140,0.740,-0.180,-5.500,5.000,-1.000
0.140,0.790,-0.210,-2.438,4.312,-1.500
0.140,0.790,-0.210,1.312,-1.375,-1.687
0.110,0.770,-0.130,1.312,-1.375,-1.687
0.040,0.800,-0.140,2.438,-5.500,-2.000
0.050,0.840,-0.020,3.063,-7.875,-0.625
0.050,0.840,-0.020,1.562,-8.500,0.250
0.000,0.740,-0.100,1.562,-8.500,0.250
-0.010,0.790,-0.060,1.937,-6.562,1.687
-0.010,0.790,-0.060,1.812,-2.625,3.063
-0.070,0.730,0.250,1.812,-2.625,3.063
-0.090,0.670,0.340,0.625,2.750,3.250
-0.050,0.660,0.240,0.187,8.500,2.500
-0.050,0.660,0.240,0.187,8.500,2.500
-0.090,0.620,-0.060,1.812,12.750,1.375
-0.120,0.540,0.020,3.625,13.688,-0.500
-0.120,0.540,0.020,3.188,10.750,-2.750
-0.070,0.480,0.040,3.188,10.750,-2.750
0.010,0.370,-0.270,-2.313,3.438,-4.562
0.010,0.370,-0.270,-2.313,3.438,-4.562
0.010,0.800,-0.380,-6.125,-3.188,-4.500
0.010,0.800,-0.380,-5.875,-8.313,-3.313
0.000,0.950,-0.190,-5.875,-8.313,-3.313
0.000,0.950,-0.190,-5.562,-9.063,-2.688
0.050,0.840,-0.070,-5.562,-9.063,-2.688
0.070,0.800,-0.080,-4.375,-4.875,-1.625
0.010,0.910,0.100,-0.312,1.000,0.562
0.040,0.840,0.080,1.312,6.437,1.687
0.040,0.840,0.080,1.312,6.437,1.687
0.010,0.900,0.000,2.188,11.313,1.875
0.010,0.900,0.000,2.188,11.313,1.875
-0.090,1.090,-0.300,2.500,14.375,1.875
-0.090,1.090,-0.300,-0.312,11.813,0.812
-0.050,0.860,-0.610,-0.312,11.813,0.812
0.020,0.690,-0.720,-3.063,4.687,-0.875
-0.080,0.950,-0.300,-1.250,-4.250,-0.312
-0.080,0.950,-0.300,-1.250,-4.250,-0.312
-0.050,0.940,0.090,1.625,-11.688,0.375
0.000,0.650,-0.030,0.187,-12.250,-0.375
0.000,0.650,-0.030,0.187,-12.250,-0.375
0.020,0.680,0.070,0.437,-9.563,-0.125
0.000,0.700,0.220,2.375,-8.813,0.687
-0.020,0.720,0.150,4.312,-4.687,1.000
-0.020,0.720,0.150,4.312,-4.687,1.000
-0.020,0.910,0.330,4.750,3.875,2.000
-0.020,0.910,0.330,4.750,3.875,2.000
-0.040,0.930,0.280,4.750,3.875,2.000
-0.060,0.680,-0.010,-0.375,6.062,0.500
0.000,0.760,-0.250,-5.937,5.812,-0.437
-0.030,0.920,-0.110,-3.938,3.688,0.250
-0.030,0.920,-0.110,-3.938,3.688,0.250
-0.010,0.770,-0.110,-1.312,0.062,1.062
-0.010,0.770,-0.110,-1.312,0.062,1.062
0.010,0.740,-0.030,-1.312,0.062,1.062
0.010,0.640,-0.200,-1.687,3.500,3.000
0.020,0.750,-0.100,-0.125,3.000,3.875
0.020,0.750,-0.100,-0.125,3.000,3.875
0.000,0.790,0.170,-0.062,2.500,3.375
-0.010,0.820,0.120,-0.750,3.375,1.875
-0.010,0.820,0.120,-0.750,3.375,1.875
-0.100,0.980,0.040,-2.938,4.187,-0.062
-0.100,0.980,0.040,-6.437,3.500,-3.188
-0.070,0.900,0.040,-6.437,3.500,-3.188
0.010,0.700,-0.200,-7.437,2.063,-4.687
0.060,0.720,-0.350,-6.500,0.937,-3.125
0.060,0.720,-0.350,-6.500,0.937,-3.125
0.100,0.610,-0.550,-3.250,-0.625,-0.312
0.100,0.610,-0.550,1.625,-3.063,2.063
0.040,0.870,-0.240,1.625,-3.063,2.063
0.020,0.990,-0.030,2.625,-2.563,2.625
-0.010,0.930,-0.100,0.375,-0.687,2.563
0.020,0.910,-0.100,-0.687,1.812,3.250
0.020,0.910,-0.100,-0.687,1.812,3.250
-0.030,0.960,-0.060,-1.000,4.250,3.000
-0.030,0.960,-0.060,-1.000,4.250,3.000
-0.070,0.800,-0.140,-0.125,4.500,1.562
0.000,0.760,-0.300,1.062,2.688,0.375
0.000,0.760,-0.300,1.062,2.688,0.375
-0.060,0.670,-0.060,-0.312,1.375,-0.375
-0.030,0.780,-0.180,-2.313,-0.625,-1.000
-0.030,0.780,-0.180,-2.313,-0.625,-1.000
0.030,0.770,-0.110,-2.313,-3.688,-1.687
0.030,0.770,-0.110,-1.687,-4.187,-1.875
0.080,0.700,0.140,-1.687,-4.187,-1.875
0.050,0.530,0.180,0.687,-2.188,-0.750
0.050,0.530,0.180,1.875,0.187,0.812
-0.010,0.510,0.340,1.875,0.187,0.812
-0.010,0.610,0.390,0.062,3.438,2.125
-0.010,0.610,0.390,-1.562,5.812,2.250
-0.010,0.620,0.120,-1.562,5.812,2.250
-0.010,0.750,-0.170,-1.000,6.125,2.250
-0.010,0.750,-0.170,-1.000,6.125,2.250
-0.050,0.830,-0.600,0.687,2.563,1.562
-0.070,1.070,-0.690,2.063,-5.000,0.187
-0.060,0.900,-0.210,0.000,-10.250,-2.188
-0.060,0.900,-0.210,0.000,-10.250,-2.188
0.000,0.650,-0.170,0.000,-10.438,-2.750
0.000,0.650,-0.170,0.000,-10.438,-2.750
0.030,0.670,0.000,2.375,-8.813,-2.000
0.000,0.730,0.100,3.625,-4.750,-1.187
0.020,0.750,0.300,3.125,1.312,-0.500
0.020,0.750,0.300,3.125,1.312,-0.500
0.000,0.820,0.270,1.187,8.063,0.375
0.000,0.820,0.270,-2.688,11.563,0.250
0.000,0.910,0.110,-2.688,11.563,0.250
0.010,0.920,-0.090,-6.062,10.813,-0.187
0.010,0.920,-0.090,-8.125,7.500,-0.500
-0.040,0.800,-0.380,-8.125,7.500,-0.500
-0.020,0.830,-0.560,-8.563,2.375,-0.875
0.000,0.710,-0.610,-5.312,-3.563,-0.750
0.000,0.710,-0.610,-5.312,-3.563,-0.750
0.020,0.700,0.320,-2.938,-6.812,-0.687
0.050,0.370,0.250,-2.000,-3.375,-0.937
0.050,0.370,0.250,-2.000,-3.375,-0.937
0.070,0.450,-0.090,2.938,0.625,0.312
0.030,0.770,0.050,5.812,1.000,1.062
-0.020,0.950,0.000,3.625,2.000,1.125
-0.020,0.950,0.000,3.625,2.000,1.125
-0.020,0.910,-0.100,1.250,2.938,0.250
-0.020,0.910,-0.100,1.250,2.938,0.250
-0.010,0.860,-0.020,-1.625,2.813,-0.562
0.000,0.860,0.020,-3.375,4.062,-1.125
0.120,0.670,-0.160,-4.000,6.437,-0.312
0.120,0.670,-0.160,-4.875,7.500,2.250
0.020,0.730,-0.030,-4.875,7.500,2.250
0.030,0.540,-0.010,-5.750,8.813,4.250
0.030,0.540,-0.010,-5.750,8.813,4.250
0.020,0.540,-0.330,-2.188,8.563,7.000
-0.150,0.940,0.020,0.750,5.062,7.000
-0.150,0.940,0.020,0.000,3.438,4.562
-0.210,0.960,-0.120,0.000,3.438,4.562
-0.170,0.950,-0.290,-0.187,1.250,1.125
-0.170,0.950,-0.290,-0.187,1.250,1.125
-0.110,1.030,-0.250,-0.937,-0.250,-1.812
0.020,0.900,0.180,-3.500,1.062,-4.000
0.020,0.900,0.180,-3.500,1.062,-4.000
0.180,0.570,0.150,-6.687,3.875,-5.625
0.220,0.430,0.160,-8.313,4.750,-4.500
0.220,0.430,0.160,-6.187,2.875,-2.313
0.160,0.350,0.140,-6.187,2.875,-2.313
0.100,0.510,0.210,-2.563,3.813,-0.187
0.100,0.510,0.210,-2.000,7.187,1.875
0.050,0.660,0.070,-2.000,7.187,1.875
0.000,0.690,-0.190,-3.375,8.188,3.000
-0.140,0.990,-0.650,-0.562,4.687,2.750
-0.140,0.990,-0.650,1.687,-0.437,1.250
-0.100,1.180,-0.540,1.687,-0.437,1.250
-0.030,1.110,-0.330,0.812,-4.062,-1.250
-0.030,1.110,-0.330,0.187,-6.062,-2.750
-0.040,0.790,-0.220,0.187,-6.062,-2.750
-0.010,0.760,0.180,1.312,-6.062,-3.375
-0.010,0.760,0.180,0.250,-3.438,-3.313
0.000,0.600,0.140,0.250,-3.438,-3.313

-0.390,1.360,2.160,7.000,-5.437,7.812
-0.390,1.360,2.160,2.563,-2.813,11.438
-0.510,1.990,2.820,2.563,-2.813,11.438
-0.550,2.160,3.100,-2.063,2.125,13.125
-0.550,2.220,3.320,-6.750,8.625,12.313
-0.550,2.220,3.320,-6.750,8.625,12.313
-0.370,2.160,3.790,-12.125,13.500,10.063
-0.370,2.160,3.790,-15.188,15.000,7.750
-0.120,1.550,4.960,-15.188,15.000,7.750
-0.190,1.170,5.540,-14.875,16.437,7.000
-0.460,0.810,5.620,-13.063,15.500,9.250
-0.460,0.810,5.620,-8.375,4.250,11.563
-0.580,0.910,4.890,-8.375,4.250,11.563
-0.600,1.560,3.270,0.625,-29.500,10.813
-0.600,1.560,3.270,0.625,-29.500,10.813
-0.620,1.640,3.830,4.312,-65.500,8.875
-0.510,1.720,4.250,-1.500,-84.938,6.812
-0.450,1.370,4.220,-13.188,-90.125,2.125
-0.450,1.370,4.220,-13.188,-90.125,2.125
0.010,1.380,4.050,-22.625,-88.438,-4.625
0.110,1.450,4.530,-18.125,-89.500,-5.437
0.110,1.450,4.530,-18.125,-89.500,-5.437
0.140,1.510,4.990,-11.500,-93.500,-6.687
0.140,1.510,4.990,-6.062,-94.313,-13.250
0.440,0.580,4.850,-6.062,-94.313,-13.250
0.600,0.590,4.710,-0.750,-93.938,-20.125
0.690,0.660,4.570,-1.812,-89.313,-22.562
0.690,0.660,4.570,-8.188,-72.938,-21.187
0.740,0.570,4.000,-8.188,-72.938,-21.187
0.610,0.430,2.600,-8.500,-53.688,-16.937
0.610,0.430,2.600,-8.500,-53.688,-16.937
0.460,0.700,2.360,-12.125,-41.500,-10.813
0.240,0.660,2.460,-21.687,-33.563,-6.250
0.030,0.410,2.480,-32.250,-17.312,-4.437
0.030,0.410,2.480,-32.250,-17.312,-4.437
0.580,-0.300,1.640,-40.750,10.875,-5.625
0.620,-0.630,1.140,-32.750,38.500,-5.125
0.620,-0.630,1.140,-32.750,38.500,-5.125
0.580,-0.980,1.320,-19.687,53.938,-2.375
0.480,-1.730,0.880,-15.813,57.938,-3.750
-1.000,-2.110,-0.550,-17.125,50.500,-12.750
-1.000,-2.110,-0.550,-17.125,50.500,-12.750
-0.850,-1.280,-0.710,-26.437,33.250,-30.937
-0.390,-0.620,-1.610,-43.500,24.437,-46.563
-0.390,-0.620,-1.610,-43.500,24.437,-46.563
-0.130,-0.080,-2.550,-49.313,37.063,-48.063
0.670,0.350,-3.030,-41.688,56.375,-45.313
0.670,0.350,-3.030,-35.188,74.813,-36.688
1.130,0.010,-4.200,-35.188,74.813,-36.688
1.530,0.260,-5.310,-21.062,85.813,-11.750
1.530,0.260,-5.310,7.250,76.063,16.375
1.290,0.540,-5.150,7.250,76.063,16.375
0.710,0.570,-4.760,32.688,55.188,30.500
0.070,0.440,-4.250,48.563,33.000,24.687
-0.020,0.570,-4.000,42.625,8.813,5.500
-0.020,0.570,-4.000,42.625,8.813,5.500
0.020,1.820,-5.080,11.438,-14.938,-15.750
0.020,1.820,-5.080,-18.750,-35.063,-34.125
0.300,2.330,-5.510,-18.750,-35.063,-34.125
0.140,2.420,-5.180,-27.500,-46.938,-49.875
0.520,0.830,-4.130,-14.125,-47.875,-66.188
0.460,-0.830,-3.120,3.625,-34.000,-66.563
0.460,-0.830,-3.120,3.625,-34.000,-66.563
0.760,-1.360,-3.820,34.438,-11.750,-61.063
0.760,-1.360,-3.820,54.375,-2.000,-49.063
0.860,-1.750,-4.360,54.375,-2.000,-49.063
0.610,-0.730,-4.530,64.688,-6.062,-34.813
0.830,1.960,-4.790,65.813,-14.500,-26.375
0.200,2.600,-4.990,52.563,-17.500,-13.500
0.200,2.600,-4.990,52.563,-17.500,-13.500
-0.260,2.640,-4.340,45.813,-15.188,2.500
-0.260,2.640,-4.340,44.063,-10.375,13.813
-0.090,1.860,-3.800,44.063,-10.375,13.813
-0.650,1.020,-1.940,38.063,-9.188,22.312
-1.100,1.270,-1.300,24.937,-6.562,25.250
-1.380,1.820,-1.000,12.500,-1.062,12.250
-1.380,1.820,-1.000,12.500,-1.062,12.250
-0.830,1.240,-0.990,5.937,11.688,-9.750
-0.830,1.240,-0.990,8.750,27.500,-23.375
-0.440,0.430,-1.030,8.750,27.500,-23.375
-0.090,-0.350,-1.090,9.500,36.063,-27.250
0.260,-0.760,-1.610,7.750,37.750,-21.187
0.300,-0.220,-1.560,12.438,32.938,-4.812
0.300,-0.220,-1.560,12.438,32.938,-4.812
0.220,0.070,-1.060,23.125,23.875,12.750
0.220,0.070,-1.060,29.000,18.500,23.312
-0.130,0.190,-1.120,29.000,18.500,23.312
-0.090,0.540,-1.100,36.250,15.688,25.875
-0.420,1.390,-0.580,47.188,13.750,23.812
-0.420,1.390,-0.580,48.250,14.750,19.937
-0.350,1.610,-1.040,48.250,14.750,19.937
-0.290,1.760,-1.370,47.375,12.500,17.437
-0.290,1.760,-1.370,47.375,12.500,17.437
-0.260,1.770,-1.490,47.750,8.750,15.063
-0.260,1.770,-1.490,49.188,3.750,13.563
-0.100,1.710,-1.720,49.188,3.750,13.563
-0.370,2.010,-1.300,58.563,-0.875,11.750
-0.730,1.890,-1.070,61.813,-6.250,5.937
-0.730,1.890,-1.070,61.813,-6.250,5.937
-0.820,1.660,-1.160,48.250,-13.625,-2.563
-0.820,1.660,-1.160,48.250,-13.625,-2.563
-0.480,1.510,-1.560,32.750,-17.875,-6.375
-0.120,1.140,-1.880,25.375,-15.875,-2.688
-0.130,1.290,-2.050,23.000,-11.813,11.438
-0.130,1.290,-2.050,25.500,-7.812,29.937
0.000,1.420,-1.800,25.500,-7.812,29.937
-0.350,1.730,-1.710,21.750,-4.125,44.875
-0.350,1.730,-1.710,21.750,-4.125,44.875
-0.280,1.550,-1.930,14.188,-0.562,51.375
-0.320,1.400,-1.670,9.875,-2.625,48.250
-0.320,1.400,-1.670,3.188,-11.688,37.938
-0.240,0.570,-1.590,3.188,-11.688,37.938
-0.310,0.070,-1.680,-2.375,-20.000,25.125
-0.300,-0.580,-1.220,0.625,-29.000,11.500
-0.300,-0.580,-1.220,0.625,-29.000,11.500
-0.150,-0.790,-0.530,1.812,-36.625,2.375
-0.150,-0.790,-0.530,-3.563,-33.813,0.062
0.000,0.060,-0.460,-3.563,-33.813,0.062
0.120,0.770,-1.350,-12.188,-22.000,1.562
-0.060,2.000,-2.120,-12.563,-11.000,6.000
-0.060,2.000,-2.120,-6.750,-2.875,12.000
-0.240,3.060,-2.620,-6.750,-2.875,12.000
-0.460,3.200,-3.540,-7.500,-0.062,14.313
-0.460,3.200,-3.540,-12.188,-4.375,11.500
-0.510,2.170,-3.400,-12.188,-4.375,11.500
-0.400,1.000,-3.000,-18.312,-12.125,9.563
-0.140,-0.010,-1.870,-17.562,-17.937,11.938
-0.140,-0.010,-1.870,-15.688,-14.063,17.562
0.130,-1.440,-0.310,-15.688,-14.063,17.562
0.320,-1.280,-0.160,-15.250,-1.250,24.937
0.320,-1.280,-0.160,-16.562,18.312,29.312
0.300,-0.620,-0.250,-16.562,18.312,29.312
0.200,0.150,-0.630,-26.250,37.000,25.812
0.000,1.600,-1.820,-32.750,43.813,12.813
0.000,1.600,-1.820,-32.750,43.813,12.813
-0.030,1.570,-2.310,-34.625,38.063,-3.313
0.370,1.670,-2.600,-38.188,26.437,-10.625
0.370,1.670,-2.600,-32.438,11.438,-8.750
0.600,1.240,-1.940,-32.438,11.438,-8.750
0.560,-1.350,-1.500,-22.125,-2.563,-0.625
0.610,-2.380,-0.630,-6.062,-19.875,11.313
0.610,-2.380,-0.630,7.250,-32.375,26.125
0.310,-2.250,-0.380,7.250,-32.375,26.125
-0.340,0.400,-1.540,7.500,-39.188,37.688
-0.340,0.400,-1.540,7.500,-39.188,37.688
-0.780,2.000,-1.770,2.875,-43.000,39.500
-0.620,3.100,-1.970,0.312,-40.938,35.438
-0.630,3.360,-2.250,-8.000,-38.875,25.875
-0.630,3.360,-2.250,-15.938,-38.438,13.313
-0.290,1.790,-1.950,-15.938,-38.438,13.313
-0.100,0.610,-0.410,-22.375,-38.875,3.500
-0.100,0.610,-0.410,-22.375,-38.875,3.500
0.300,-0.740,0.310,-30.625,-24.937,0.000
0.670,-1.450,0.700,-32.375,2.125,-1.437
0.640,-0.510,-0.410,-24.125,25.312,-3.375
0.640,-0.510,-0.410,-24.125,25.312,-3.375
0.520,0.550,-1.230,-17.250,35.313,-6.500
0.420,1.530,-1.540,-20.125,31.500,-8.563
0.420,1.530,-1.540,-20.125,31.500,-8.563
-0.010,2.200,-1.950,-29.187,15.625,-8.313
-1.120,1.320,-1.370,-29.687,-5.562,-14.813
-1.090,0.580,-0.450,-27.000,-23.562,-24.062
-1.090,0.580,-0.450,-27.000,-23.562,-24.062
-0.490,-0.310,0.810,-28.687,-26.812,-26.500
-0.490,-0.310,0.810,-28.687,-26.812,-26.500
0.100,-0.870,1.770,-19.625,-11.938,-28.312
0.460,0.390,1.370,-20.187,6.375,-24.187
0.850,0.860,0.590,-27.687,20.000,-23.062
0.850,0.860,0.590,-47.313,30.562,-20.562
0.520,0.210,-0.780,-47.313,30.562,-20.562
0.290,-0.170,-1.210,-50.813,44.563,-4.812
0.290,-0.170,-1.210,-50.813,44.563,-4.812
-0.360,0.270,-0.140,-44.875,58.375,17.687
-1.010,0.160,-0.090,-46.313,65.063,33.125
-1.320,0.180,-0.350,-40.688,73.813,36.625
-1.320,0.180,-0.350,-30.375,75.563,25.500
-0.940,0.460,0.880,-30.375,75.563,25.500
0.100,-0.220,1.490,-25.375,57.000,3.500
0.100,-0.220,1.490,-25.375,57.000,3.500
0.630,-0.480,1.640,-26.625,37.375,-10.500
1.040,-0.530,1.450,-21.437,31.312,-12.000
0.660,0.500,0.430,-15.438,41.625,-5.125
0.660,0.500,0.430,-7.500,67.625,8.000
-0.020,1.110,0.320,-7.500,67.625,8.000
-0.460,0.530,-0.890,-7.125,90.438,19.312
-0.460,0.530,-0.890,-7.125,90.438,19.312
-0.930,0.560,-1.150,-3.688,87.375,23.125
-0.660,0.490,0.880,6.750,56.813,19.312
-0.660,0.490,0.880,6.750,56.813,19.312
-0.220,-0.090,1.170,1.312,14.375,11.000
0.170,-0.040,1.100,-4.500,-15.688,6.875
0.170,-0.040,1.100,-4.500,-15.688,6.875
0.800,0.180,0.830,0.187,-24.125,16.250
0.890,1.880,0.210,16.500,-25.500,37.688
0.890,1.880,0.210,40.000,-35.313,54.063
-0.050,2.210,-0.210,40.000,-35.313,54.063
-0.650,1.890,-0.640,49.438,-51.313,52.813
-0.650,1.890,-0.640,41.500,-64.750,42.625
-0.950,1.510,-0.480,41.500,-64.750,42.625
-0.960,0.200,0.130,22.000,-67.000,31.187
-0.960,0.200,0.130,22.000,-67.000,31.187
-0.710,-0.080,1.200,11.625,-64.563,19.000
-0.120,-0.400,1.910,-1.250,-64.625,9.125
0.230,1.820,0.230,-27.000,-59.063,12.625
1.320,2.700,-0.300,-16.062,-40.375,15.125
1.320,2.700,-0.300,-16.062,-40.375,15.125
2.260,1.590,3.030,74.688,-24.437,-10.188
2.260,1.590,3.030,109.938,-5.625,-17.500
2.240,1.530,3.910,109.938,-5.625,-17.500
-0.450,1.590,0.140,16.375,12.875,6.500
-0.970,1.450,-1.840,-75.750,26.250,23.875
-0.960,0.770,-1.470,-80.375,27.437,21.000
-0.960,0.770,-1.470,-80.375,27.437,21.000
-0.920,0.360,0.770,-13.375,26.375,11.438
-0.920,0.360,0.770,36.875,36.563,7.437
-0.900,-0.540,2.850,36.875,36.563,7.437
-1.200,-0.790,2.490,24.062,57.688,11.188
-1.030,-0.370,1.640,-4.187,75.063,17.750
-1.230,1.610,0.330,-26.250,82.250,20.875
-1.230,1.610,0.330,-26.250,82.250,20.875
0.470,2.350,-0.090,-28.062,74.938,9.563
0.470,2.350,-0.090,-28.062,74.938,9.563
1.080,2.200,0.350,-12.813,63.313,-3.500
1.170,1.490,1.190,-11.250,46.000,-6.625
0.810,0.450,1.650,-8.063,36.000,-4.562
0.810,0.450,1.650,0.312,27.125,-2.313
0.040,-0.350,1.690,0.312,27.125,-2.313
-0.390,0.450,1.220,12.188,15.250,-2.938
-0.390,0.450,1.220,12.188,15.250,-2.938
-0.500,1.190,0.870,24.562,1.812,-8.000
-0.500,1.190,0.870,23.250,-10.313,-16.250
-0.320,1.220,0.720,23.250,-10.313,-16.250
0.230,1.090,0.740,18.937,-18.312,-22.562
0.270,0.930,1.120,15.188,-22.312,-22.187
0.270,0.930,1.120,15.188,-22.312,-22.187
0.180,0.670,1.730,10.063,-23.687,-16.562
-0.170,0.820,1.850,9.125,-18.937,-11.813
-0.170,0.820,1.850,9.125,-18.937,-11.813
-0.070,0.910,1.860,6.562,-8.813,-7.687
0.130,0.620,2.080,2.250,-0.812,-4.625
0.210,0.600,1.790,-1.125,3.500,-1.875
0.210,0.600,1.790,-1.125,3.500,-1.875
0.110,0.940,1.170,-1.375,4.812,2.313
0.080,0.900,0.910,0.437,-2.500,4.375
0.080,0.900,0.910,0.437,-2.500,4.375
0.110,1.190,0.480,0.000,-12.000,4.437
0.040,1.590,0.400,1.250,-20.812,4.500
0.040,1.590,0.400,-1.687,-25.625,3.375
0.120,1.380,0.390,-1.687,-25.625,3.375
0.200,1.010,0.660,-7.000,-21.187,3.688

-0.230,0.990,2.740,7.875,2.563,1.500
-0.230,0.990,2.740,7.000,12.938,5.812
-0.220,1.050,3.200,7.000,12.938,5.812
-0.220,1.010,3.430,0.750,23.437,10.313
-0.220,1.010,3.430,-9.438,27.187,13.625
-0.180,0.810,3.970,-9.438,27.187,13.625
0.000,0.470,3.930,-13.250,22.437,17.937
0.000,0.470,3.930,-4.875,2.125,23.312
-0.090,0.510,4.050,-4.875,2.125,23.312
-0.300,1.070,5.470,2.063,-27.062,24.000
-0.230,0.920,7.370,4.625,-49.438,20.750
-0.230,0.920,7.370,4.625,-49.438,20.750
-0.050,0.580,7.620,16.312,-67.125,17.750
-0.050,0.580,7.620,34.063,-82.188,13.188
-0.050,0.140,7.940,34.063,-82.188,13.188
0.060,-0.100,7.950,40.813,-85.250,9.125
-0.160,0.060,6.620,44.125,-74.438,14.625
-0.430,0.680,6.520,41.563,-64.938,16.187
-0.430,0.680,6.520,41.563,-64.938,16.187
-0.480,0.970,6.170,31.750,-54.563,14.250
-0.480,0.970,6.170,31.750,-54.563,14.250
-0.550,0.950,5.500,24.937,-45.688,11.750
-0.720,1.260,5.200,16.562,-39.188,8.063
-0.480,1.220,5.530,4.062,-33.938,-0.250
-0.480,1.220,5.530,-5.375,-27.625,-9.875
-0.220,0.640,5.330,-5.375,-27.625,-9.875
-0.220,0.640,5.330,-9.563,-22.187,-17.187
-0.010,0.100,4.700,-9.563,-22.187,-17.187
0.460,0.270,3.550,-10.563,-12.875,-22.250
0.460,0.270,3.550,-10.563,-12.875,-22.250
0.860,0.510,2.080,-15.125,8.188,-19.875
0.860,0.510,2.080,-15.125,8.188,-19.875
0.800,1.120,0.360,-24.500,34.750,-8.250
0.500,2.900,-1.890,-28.125,52.813,4.875
0.500,2.900,-1.890,-28.125,52.813,4.875
-0.300,2.740,-1.360,-19.125,52.563,7.250
-0.300,2.740,-1.360,-6.250,42.250,-11.500
-0.700,1.700,-0.570,-6.250,42.250,-11.500
-0.360,0.290,-0.930,-7.687,32.250,-37.375
0.170,-0.850,-1.930,-14.563,18.062,-51.875
0.820,-0.720,-2.350,-22.437,3.938,-56.313
0.820,-0.720,-2.350,-22.437,3.938,-56.313
1.340,-0.080,-3.130,-25.375,3.563,-43.688
1.340,-0.080,-3.130,-21.312,9.813,-16.437
1.390,1.030,-4.110,-21.312,9.813,-16.437
0.450,2.790,-4.580,-19.250,12.625,3.125
0.080,2.960,-3.640,-17.562,9.750,-0.750
0.080,2.960,-3.640,-17.562,13.563,-16.187
-0.110,2.230,-2.900,-17.562,13.563,-16.187
-0.330,1.200,-2.640,-10.375,27.562,-36.125
-0.330,1.200,-2.640,-10.375,27.562,-36.125
-0.290,-0.180,-3.480,-3.313,36.063,-53.625
0.260,-0.750,-4.170,-13.625,27.250,-68.000
1.060,-0.880,-4.280,-23.312,6.375,-74.875
1.060,-0.880,-4.280,-16.062,-20.437,-69.313
1.990,-0.050,-4.530,-16.062,-20.437,-69.313
2.050,0.890,-5.030,9.313,-47.313,-52.500
2.050,0.890,-5.030,9.313,-47.313,-52.500
1.320,0.970,-4.800,33.938,-61.625,-28.125
0.020,0.660,-4.630,45.063,-61.063,-8.313
0.020,0.660,-4.630,48.063,-63.625,11.875
0.400,0.370,-5.090,48.063,-63.625,11.875
-0.460,-0.570,-4.280,41.000,-74.813,23.687
-0.600,-0.590,-2.910,34.313,-92.000,20.812
-0.600,-0.590,-2.910,34.313,-92.000,20.812
-0.220,-0.600,-1.740,35.125,-99.500,16.125
-0.220,-0.600,-1.740,33.813,-92.188,11.313
-0.490,-0.980,-0.020,33.813,-92.188,11.313
-0.740,-1.430,0.190,30.375,-66.750,2.813
-0.840,-0.820,0.070,27.187,-30.812,-7.125
-0.840,-0.820,0.070,16.437,1.937,-18.937
-1.040,0.190,-0.580,16.437,1.937,-18.937
-0.500,1.380,-2.230,13.125,22.437,-32.063
-0.500,1.380,-2.230,12.125,28.812,-41.000
-0.530,1.060,-2.520,12.125,28.812,-41.000
-0.560,0.490,-2.730,7.750,32.688,-41.750
0.080,0.120,-2.900,-2.625,36.063,-30.500
0.080,0.120,-2.900,-5.875,36.188,-9.313
0.470,0.120,-3.110,-5.875,36.188,-9.313
0.250,0.530,-2.480,2.688,33.250,10.000
0.250,0.530,-2.480,2.688,33.250,10.000
-0.090,0.670,-1.530,5.312,31.625,19.562
0.000,-0.080,-0.830,8.000,37.000,18.250
-0.240,-0.070,-0.930,17.000,41.000,15.500
-0.240,-0.070,-0.930,17.000,41.000,15.500
-0.470,0.460,-1.390,24.562,40.313,10.500
-0.470,0.460,-1.390,26.562,35.000,0.875
-0.430,0.830,-1.560,26.562,35.000,0.875
-0.240,1.250,-2.120,24.125,27.187,-4.437
0.010,2.980,-3.330,19.625,17.125,-1.937
0.030,3.830,-3.140,11.688,8.688,4.250
0.030,3.830,-3.140,11.688,8.688,4.250
-0.080,4.310,-2.560,3.125,10.625,12.250
-0.080,4.310,-2.560,3.125,10.625,12.250
-0.280,3.900,-1.700,-2.625,15.125,11.438
-0.280,3.900,-1.700,-2.625,15.125,11.438
-0.350,2.060,-0.990,-4.062,15.500,-1.812
-0.560,0.860,-0.680,-0.375,10.688,-20.500
-0.760,-0.280,-0.450,1.375,5.437,-37.313
-0.760,-0.280,-0.450,1.375,5.437,-37.313
-0.410,-0.890,-0.770,8.000,2.563,-43.438
-0.410,-0.890,-0.770,12.000,0.062,-37.938
-0.330,-0.350,-1.110,12.000,0.062,-37.938
-0.350,-0.270,-1.080,12.313,1.437,-23.375
-0.110,0.090,-0.630,14.813,8.813,-2.875
-0.110,0.090,-0.630,12.438,17.750,15.875
-0.310,1.430,-1.020,12.438,17.750,15.875
-0.570,1.910,-1.220,10.000,22.937,29.500
-0.570,1.910,-1.220,10.000,22.937,29.500
-0.640,2.030,-1.140,5.812,25.000,38.375
-0.720,1.880,-1.350,3.313,30.375,41.750
-0.720,1.880,-1.350,3.313,30.375,41.750
-0.150,1.350,-1.070,1.500,33.125,39.125
0.060,0.780,-0.990,-0.437,27.500,31.625
0.060,0.780,-0.990,-0.062,17.750,23.437
0.060,0.390,-0.800,-0.062,17.750,23.437
0.120,0.160,-0.820,-0.437,7.875,17.062
0.120,0.160,-0.820,-1.812,-4.625,12.938
0.210,0.870,-1.340,-1.812,-4.625,12.938
0.240,1.130,-1.360,-2.250,-18.625,10.188
0.030,1.340,-1.080,3.000,-27.062,12.125
0.030,1.340,-1.080,8.813,-28.625,14.875
-0.220,1.530,-0.880,8.813,-28.625,14.875
-0.490,1.280,-0.710,12.438,-25.125,14.438
-0.490,1.280,-0.710,9.000,-21.375,8.438
-0.430,0.710,-0.680,9.000,-21.375,8.438
0.040,0.090,-1.060,5.250,-19.750,0.875
0.270,0.190,-1.110,6.625,-24.750,-2.063
0.270,0.190,-1.110,6.625,-24.750,-2.063
0.260,0.550,-1.230,7.437,-32.063,-3.500
0.020,1.010,-1.350,7.250,-37.875,-4.625
0.020,1.010,-1.350,5.437,-39.813,-7.875
-0.290,1.290,-1.340,5.437,-39.813,-7.875
-0.410,1.080,-1.280,-0.500,-37.125,-15.625
-0.390,1.270,-1.300,-5.687,-29.687,-23.000
-0.390,1.270,-1.300,-8.688,-18.375,-25.125
-0.300,1.500,-1.260,-8.688,-18.375,-25.125
-0.020,1.730,-1.450,-11.188,-7.000,-24.187
-0.020,1.730,-1.450,-9.688,-0.625,-22.562
-0.060,1.960,-2.240,-9.688,-0.625,-22.562
-0.130,1.530,-2.360,-4.500,-3.000,-23.000
-0.080,0.950,-2.020,-1.500,-11.875,-25.125
-0.080,0.950,-2.020,-2.813,-18.687,-21.562
-0.050,0.280,-1.460,-2.813,-18.687,-21.562
0.370,-0.610,-0.910,1.750,-9.438,-6.562
0.370,-0.610,-0.910,1.750,-9.438,-6.562
0.190,-0.170,-0.910,12.313,17.812,21.562
-0.560,1.110,-1.670,15.813,51.813,50.375
-0.960,2.210,-2.380,6.562,77.250,59.875
-0.960,2.210,-2.380,6.562,77.250,59.875
-0.400,2.840,-3.700,-10.813,88.500,55.438
-0.390,2.350,-3.780,-27.125,83.500,46.875
-0.390,2.350,-3.780,-27.125,83.500,46.875
-0.170,1.260,-3.650,-38.688,68.625,26.937
0.400,0.170,-3.390,-44.188,49.188,6.125
1.750,-2.210,-2.500,-40.625,29.125,-0.437
1.750,-2.210,-2.500,-40.625,29.125,-0.437
1.790,-2.530,-2.200,-30.000,13.438,11.000
1.790,-2.530,-2.200,-30.000,13.438,11.000
1.280,-2.050,-2.260,-13.438,7.875,36.875
-0.650,0.790,-3.190,-0.812,0.125,62.313
-1.310,1.960,-3.210,12.188,-13.438,69.438
-1.730,2.870,-3.520,16.562,-25.500,54.000
-1.730,2.870,-3.520,16.562,-25.500,54.000
-1.610,2.900,-4.080,12.313,-46.250,21.750
-1.610,2.900,-4.080,2.313,-74.875,-10.250
-0.250,1.080,-3.050,2.313,-74.875,-10.250
0.020,-0.540,-1.770,-6.875,-95.563,-27.687
0.730,-2.230,-0.480,-10.875,-99.000,-29.562
1.280,-3.340,0.320,-7.250,-78.375,-11.438
1.280,-3.340,0.320,-7.250,-78.375,-11.438
0.260,-1.630,0.560,11.813,-39.625,19.500
0.260,-1.630,0.560,11.813,-39.625,19.500
-0.220,-0.230,0.180,24.187,-10.875,44.875
-0.590,0.820,-0.680,24.437,-4.250,50.625
-1.000,1.780,-1.740,25.375,-12.438,41.063
-1.000,1.780,-1.740,24.562,-28.500,26.062
-1.570,2.970,-1.360,24.562,-28.500,26.062
-1.020,2.540,-1.600,11.438,-37.125,5.812
-1.020,2.540,-1.600,11.438,-37.125,5.812
-0.310,3.110,-1.790,-5.125,-35.500,-8.063
0.240,2.570,-0.800,-9.500,-26.187,-18.000
0.790,-0.790,1.800,-15.500,-1.187,-22.937
0.790,-0.790,1.800,-24.187,39.875,-15.625
0.410,-1.370,1.860,-24.187,39.875,-15.625
0.110,-1.950,1.170,-35.563,79.250,-3.875
0.110,-1.950,1.170,-35.563,79.250,-3.875
0.160,-1.180,0.050,-37.438,96.563,6.562
-0.250,1.700,-0.380,-36.563,79.313,4.437
-0.250,1.700,-0.380,-40.250,49.188,-10.438
-0.120,1.930,-0.150,-40.250,49.188,-10.438
0.360,2.310,-0.840,-42.000,33.813,-20.500
0.360,2.310,-0.840,-31.375,28.687,-14.313
1.430,2.440,-1.000,-31.375,28.687,-14.313
1.370,1.780,-0.940,-16.500,23.687,-1.750
1.370,1.780,-0.940,-3.313,10.250,2.625
0.960,0.630,0.170,-3.313,10.250,2.625
0.410,-0.780,1.650,-5.250,-1.250,4.812
-0.220,-2.000,2.560,-22.250,2.688,11.625
-0.220,-2.000,2.560,-44.688,10.813,15.813
-0.560,-1.560,2.390,-44.688,10.813,15.813
-0.540,-0.780,2.380,-42.875,15.250,10.375
-0.540,-0.780,2.380,-39.125,20.000,2.875
-0.900,0.610,1.190,-39.125,20.000,2.875
-1.580,2.890,0.450,-31.875,15.750,-9.688
-0.990,3.260,0.780,-26.375,1.312,-25.187
-0.990,3.260,0.780,-31.562,-3.688,-34.188
-0.200,2.730,1.100,-31.562,-3.688,-34.188
0.230,1.310,1.980,-33.813,1.625,-32.438
0.230,1.310,1.980,-33.813,1.625,-32.438
0.310,-1.880,3.770,-29.437,20.687,-25.562
0.360,-2.390,3.410,-22.187,50.500,-8.000
0.080,-2.020,2.180,-11.188,74.250,16.562
0.080,-2.020,2.180,-2.250,73.313,36.875
-0.180,-1.310,1.200,-2.250,73.313,36.875
-0.810,0.970,1.100,-0.375,58.313,48.563
-0.810,0.970,1.100,-0.375,58.313,48.563
-0.990,1.410,1.450,-9.125,39.375,45.875
-1.130,1.270,1.580,-23.375,27.875,29.875
-0.600,1.890,0.830,-25.125,23.562,5.625
-0.600,1.890,0.830,-25.125,23.562,5.625
-0.120,1.430,1.510,-23.187,20.750,-21.062
0.130,1.000,1.460,-24.000,30.250,-35.375
0.130,1.000,1.460,-24.000,30.250,-35.375
-0.060,0.570,1.580,-14.688,39.625,-41.375
-0.020,-0.530,1.710,-9.500,37.813,-42.875
-0.110,-0.640,1.050,-5.437,38.375,-37.188
-0.110,-0.640,1.050,-5.437,38.375,-37.188
0.170,-0.510,1.090,-0.625,36.063,-31.062
0.170,-0.510,1.090,1.562,34.875,-21.062
0.610,-0.110,1.720,1.562,34.875,-21.062
0.490,0.770,3.150,-2.063,42.438,-4.000
0.240,1.150,3.450,-4.125,46.375,6.250
0.240,1.150,3.450,-4.125,46.375,6.250
0.180,1.090,3.370,-5.187,44.063,4.625
0.090,0.590,2.770,-5.562,34.188,-0.500
0.090,0.590,2.770,-5.562,34.188,-0.500
0.190,0.550,2.450,2.500,21.812,-5.875
0.320,0.660,2.230,13.625,16.312,-8.813
0.320,0.660,2.230,13.625,16.312,-8.813
0.250,1.020,1.410,22.000,20.812,-5.812
0.150,1.280,0.630,26.812,26.562,-0.562
0.150,1.280,0.630,26.812,26.562,-0.562
-0.320,1.380,0.550,26.125,29.937,3.938
-0.380,1.570,0.370,22.312,32.250,7.437
-0.380,1.570,0.370,22.312,32.250,7.437
-0.300,1.720,0.380,15.125,24.687,5.812
-0.180,1.810,0.690,9.500,8.563,0.187
0.070,1.210,1.560,5.937,-9.000,-5.312
0.070,1.210,1.560,5.937,-9.000,-5.312

-0.530,0.830,3.210,3.625,-3.438,3.375
-0.530,0.830,3.210,4.812,0.562,0.687
-0.440,0.750,3.250,4.812,0.562,0.687
-0.320,0.600,3.080,9.438,5.125,-1.500
-0.320,0.600,3.080,9.438,5.125,-1.500
-0.290,0.590,3.290,15.250,9.750,-1.187
-0.290,0.590,3.290,15.125,12.938,1.875
-0.420,0.630,4.120,15.125,12.938,1.875
-0.520,0.250,4.290,8.375,13.125,5.500
-0.590,0.090,4.480,2.813,9.250,7.125
-0.590,0.090,4.480,2.125,0.437,9.625
-0.620,-0.150,4.830,2.125,0.437,9.625
-0.490,-0.100,6.600,2.125,-15.000,13.438
-0.490,-0.100,6.600,3.313,-30.312,16.875
-0.190,-0.100,7.300,3.313,-30.312,16.875
-0.050,-0.140,7.070,2.375,-37.750,22.062
0.300,0.520,5.920,9.250,-38.750,28.062
0.300,0.520,5.920,24.687,-39.563,32.250
-0.230,2.040,4.570,24.687,-39.563,32.250
-0.420,2.520,4.020,37.563,-42.313,26.750
-0.420,2.520,4.020,43.063,-48.875,11.688
-0.460,2.520,3.980,43.063,-48.875,11.688
-0.480,2.460,4.570,40.125,-66.375,-8.313
0.000,1.480,4.780,29.437,-93.938,-31.437
0.000,1.480,4.780,14.625,-117.438,-53.375
0.140,1.200,4.540,14.625,-117.438,-53.375
0.370,1.670,4.390,7.500,-110.250,-64.188
0.370,1.670,4.390,7.500,-110.250,-64.188
0.940,2.630,2.960,-2.438,-89.063,-60.563
1.260,2.810,1.470,-18.562,-46.688,-41.750
0.810,2.870,-0.150,-13.375,8.500,-8.688
0.810,2.870,-0.150,-13.375,8.500,-8.688
0.190,3.220,-0.450,6.250,56.188,27.062
-0.930,1.370,1.230,14.313,71.625,46.125
-0.930,1.370,1.230,14.313,71.625,46.125
-1.330,-0.360,2.260,3.813,47.750,34.438
-0.800,-2.140,2.550,-21.812,10.625,3.250
-0.010,-2.550,1.590,-50.375,-13.750,-20.062
-0.010,-2.550,1.590,-61.750,-26.750,-25.375
-0.050,-0.760,0.040,-61.750,-26.750,-25.375
0.160,0.870,-1.720,-55.313,-31.937,-24.250
0.160,0.870,-1.720,-55.313,-31.937,-24.250
0.470,2.490,-2.750,-38.188,-19.625,-15.063
-0.020,2.860,-2.660,-21.687,-3.500,-0.937
-1.150,0.640,-2.130,-6.125,16.000,8.313
-1.150,0.640,-2.130,-6.125,16.000,8.313
-0.900,-0.700,-1.990,-2.813,43.438,5.250
-0.880,-1.910,-2.420,-23.625,56.250,-7.812
-0.880,-1.910,-2.420,-23.625,56.250,-7.812
-0.520,-1.970,-2.300,-44.375,55.625,-25.937
1.300,-0.490,-2.980,-44.000,56.813,-38.250
1.190,0.350,-3.810,-25.125,54.188,-40.250
1.190,0.350,-3.810,2.063,46.563,-35.313
0.920,1.160,-4.460,2.063,46.563,-35.313
0.920,1.160,-4.460,8.375,48.375,-22.937
0.730,2.080,-5.040,8.375,48.375,-22.937
-0.040,2.060,-5.600,1.500,57.625,-8.375
-0.040,2.060,-5.600,1.500,57.625,-8.375
-0.060,0.970,-5.780,1.062,58.938,-2.938
0.230,0.220,-5.190,-8.563,44.500,-10.438
0.230,0.220,-5.190,-21.000,23.187,-19.437
1.090,-0.880,-3.270,-21.000,23.187,-19.437
1.550,-0.940,-3.450,-23.437,7.437,-29.875
1.550,-0.940,-3.450,-4.500,19.187,-17.625
1.640,-0.560,-3.070,-4.500,19.187,-17.625
1.820,0.040,-4.070,15.875,28.437,2.375
1.520,2.270,-5.000,37.875,20.437,17.312
1.520,2.270,-5.000,37.875,20.437,17.312
0.780,1.740,-4.820,63.063,-8.688,24.750
0.010,1.530,-4.150,64.563,-47.438,21.187
0.010,1.530,-4.150,43.688,-79.313,5.312
-0.270,1.940,-3.600,43.688,-79.313,5.312
-0.220,1.550,-2.390,22.437,-94.125,-15.063
-0.140,1.290,-2.250,14.313,-88.938,-28.625
-0.140,1.290,-2.250,16.062,-69.625,-34.250
0.010,0.550,-1.890,16.062,-69.625,-34.250
0.400,-0.500,-1.510,13.875,-46.688,-31.375
0.400,-0.500,-1.510,11.000,-27.812,-24.437
0.770,-1.570,-1.940,11.000,-27.812,-24.437
0.630,-1.620,-1.040,21.125,-17.562,-17.250
0.550,-1.470,-0.680,35.438,-15.188,-9.438
0.550,-1.470,-0.680,41.313,-13.500,-2.375
0.250,-1.270,-0.510,41.313,-13.500,-2.375
-0.740,-0.520,-0.810,47.625,-6.000,-1.750
-0.740,-0.520,-0.810,44.875,7.937,-5.062
-0.850,-0.330,-1.030,44.875,7.937,-5.062
-0.810,-0.250,-1.010,34.125,27.062,-2.750
-0.450,0.000,-0.880,25.312,46.438,5.562
-0.450,0.000,-0.880,24.000,68.438,18.000
-0.390,2.040,-1.710,24.000,68.438,18.000
-0.460,3.150,-2.020,20.875,82.750,29.312
-0.460,3.150,-2.020,20.875,82.750,29.312
-0.250,3.310,-2.300,16.187,80.938,25.562
0.390,3.220,-2.520,19.437,73.188,11.938
0.820,2.680,-2.360,20.187,63.188,2.750
0.820,2.680,-2.360,20.187,63.188,2.750
0.740,1.960,-1.990,16.875,45.938,-0.125
1.060,1.740,-1.740,8.688,17.812,-0.375
1.060,1.740,-1.740,8.688,17.812,-0.375
0.620,2.080,-1.470,4.562,-5.250,-0.875
0.720,1.790,-1.050,4.625,-25.125,-6.187
0.350,1.570,-0.880,13.250,-39.688,-11.938
0.350,1.570,-0.880,13.250,-39.688,-11.938
0.030,1.340,-1.180,27.062,-46.750,-18.750
0.030,1.340,-1.180,27.062,-46.750,-18.750
0.050,0.340,-2.000,27.062,-46.750,-18.750
0.010,0.480,-2.070,27.500,-49.625,-19.312
-0.130,0.650,-1.890,26.125,-55.813,-12.375
-0.130,0.650,-1.890,25.312,-62.813,-8.375
-0.270,0.640,-1.240,25.312,-62.813,-8.375
-0.730,0.440,-0.930,21.125,-59.750,-2.438
-0.730,0.440,-0.930,21.125,-59.750,-2.438
-0.770,0.660,-0.730,21.125,-59.750,-2.438
-0.760,1.010,-0.830,15.813,-47.500,4.375
-0.630,1.500,-1.110,4.625,-25.125,11.938
-0.630,1.500,-1.110,3.188,-22.625,5.187
-0.560,2.280,-1.840,3.188,-22.625,5.187
-0.490,2.320,-2.160,0.437,-26.812,-3.188
-0.490,2.320,-2.160,0.437,-26.812,-3.188
-0.470,1.480,-2.080,-4.625,-34.063,-8.188
-0.140,0.170,-1.700,-9.688,-39.938,-7.187
0.000,0.070,-1.250,-12.375,-43.188,-3.188
-0.300,0.260,-1.070,-10.688,-39.750,0.125
-0.300,0.260,-1.070,-10.688,-39.750,0.125
-0.440,0.600,-1.170,-10.813,-31.625,-1.687
-0.440,0.600,-1.170,-10.813,-31.625,-1.687
-0.290,1.350,-1.830,-10.375,-21.562,-5.250
-0.050,2.010,-2.790,-4.250,-15.813,-7.125
0.060,2.400,-3.440,5.625,-21.750,-7.375
0.060,2.400,-3.440,11.313,-30.187,0.687
-0.120,2.260,-3.770,11.313,-30.187,0.687
-0.650,-0.020,-2.800,4.000,-27.625,19.187
-0.650,-0.020,-2.800,4.000,-27.625,19.187
-0.640,-0.570,-2.120,-11.938,-11.688,43.438
-0.730,-0.970,-1.830,-21.125,8.063,59.250
-0.540,-0.820,-1.620,-24.937,23.750,64.500
-0.540,-0.820,-1.620,-26.562,38.563,56.063
-0.190,0.710,-1.490,-26.562,38.563,56.063
-0.190,0.710,-1.490,-26.562,38.563,56.063
0.000,0.920,-1.770,-24.375,44.938,34.375
-0.030,0.690,-2.410,-22.625,42.375,7.125
-0.030,0.690,-2.410,-22.625,42.375,7.125
0.370,0.380,-3.540,-20.125,37.875,1.562
0.180,1.480,-4.740,-14.063,30.250,27.125
-0.210,1.210,-3.740,-10.688,28.500,49.250
-0.210,1.210,-3.740,-10.688,28.500,49.250
-0.430,0.250,-2.840,-10.688,41.375,60.375
-0.430,0.250,-2.840,-13.063,54.188,59.688
-0.470,-0.190,-1.830,-13.063,54.188,59.688
0.030,-0.280,-1.460,-9.688,50.563,40.438
0.130,-0.310,-1.930,-0.937,25.937,10.375
0.340,-0.200,-2.160,3.813,-6.750,-11.688
0.340,-0.200,-2.160,3.813,-6.750,-11.688
0.620,0.580,-2.370,8.438,-37.625,-16.187
0.620,0.580,-2.370,19.187,-56.250,-9.875
0.570,1.360,-2.020,19.187,-56.250,-9.875
0.120,1.450,-1.450,18.437,-54.125,-1.750
-0.550,1.100,-1.690,11.125,-31.937,-3.000
-0.550,1.100,-1.690,-4.500,-7.750,-11.063
-1.290,0.970,-2.190,-4.500,-7.750,-11.063
-1.350,0.400,-2.460,-22.250,8.500,-18.562
-1.350,0.400,-2.460,-22.250,8.500,-18.562
-1.000,0.130,-1.660,-27.000,17.375,-20.312
-0.350,0.060,-1.140,-32.250,22.312,-15.625
0.290,-0.160,-0.990,-26.312,25.937,-5.875
0.110,0.250,-1.340,-18.000,27.312,4.937
0.110,0.250,-1.340,-18.000,27.312,4.937
-0.290,0.570,-0.970,-3.750,20.000,7.187
-0.290,0.570,-0.970,0.187,10.438,1.750
-0.300,0.180,-0.080,0.187,10.438,1.750
0.340,-0.910,-0.770,-14.313,7.500,-2.250
-0.280,-0.120,-1.250,-27.625,9.750,-2.500
-0.280,-0.120,-1.250,-35.313,24.562,-6.562
-0.610,0.410,-0.170,-35.313,24.562,-6.562
-0.190,0.290,0.500,-54.688,55.750,-1.437
-0.190,0.290,0.500,-54.688,55.750,-1.437
-0.200,0.930,-0.160,-55.563,79.563,9.438
-0.590,1.200,-1.050,-46.750,79.688,10.188
-0.830,1.170,-1.080,-40.938,65.750,0.812
-0.830,1.170,-1.080,-40.375,39.063,-10.563
-0.550,0.350,-0.750,-40.375,39.063,-10.563
0.390,-0.420,-0.730,-46.063,11.313,-16.000
0.390,-0.420,-0.730,-46.063,11.313,-16.000
1.050,-0.190,-0.290,-37.375,-8.500,-16.875
1.050,-0.190,-0.290,-21.875,-9.938,-11.000
1.400,-0.400,0.690,-21.875,-9.938,-11.000
0.580,-0.240,0.140,-9.750,10.813,4.187
0.110,0.170,0.070,-4.250,32.625,18.687
0.110,0.170,0.070,-5.937,37.500,23.187
-0.600,0.860,0.230,-5.937,37.500,23.187
-0.810,1.500,0.130,-17.437,31.000,17.312
-0.810,1.500,0.130,-26.187,21.437,7.312
-0.920,1.980,-0.290,-26.187,21.437,7.312
-0.730,1.050,0.650,-11.188,25.500,-2.938
-0.360,0.150,0.680,0.000,40.875,0.750
-0.360,0.150,0.680,9.750,63.375,17.312
0.170,-0.770,1.220,9.750,63.375,17.312
0.780,-1.230,1.100,32.625,80.375,35.938
0.780,-1.230,1.100,32.625,80.375,35.938
0.200,-0.230,2.260,61.313,65.688,47.625
-0.820,0.590,2.950,67.250,28.062,43.563
-0.820,0.590,2.950,44.375,-6.437,24.625
-1.390,1.430,3.910,44.375,-6.437,24.625
-1.110,1.960,5.250,4.625,-22.625,7.687
-1.110,1.960,5.250,-25.937,-18.125,-5.375
-0.890,1.910,5.530,-25.937,-18.125,-5.375
-0.240,1.180,7.020,-24.625,-0.312,-21.937
0.170,0.310,7.760,-9.875,18.125,-35.688
0.240,-0.910,7.240,5.750,32.250,-41.875
0.240,-0.910,7.240,5.750,32.250,-41.875
0.990,-0.650,5.820,15.250,39.813,-36.063
0.990,-0.650,5.820,15.250,39.813,-36.063
0.610,0.180,4.450,29.687,30.750,-27.562
-0.120,1.790,2.060,33.250,12.813,-20.687
-0.260,1.940,1.940,19.812,-4.312,-14.813
-0.260,1.940,1.940,-7.562,-11.250,-9.000
-0.470,1.940,0.780,-7.562,-11.250,-9.000
-0.570,2.060,0.690,-8.688,-5.250,-8.563
-0.570,2.060,0.690,-8.688,-5.250,-8.563
-0.050,1.600,1.980,-7.187,-1.812,-6.562
0.150,1.020,2.290,-11.688,-7.187,-7.687
0.220,0.650,2.690,-8.000,-24.500,-13.875
0.220,0.650,2.690,-1.250,-44.125,-18.062
0.260,0.540,2.770,-1.250,-44.125,-18.062
0.060,1.510,1.680,2.000,-51.563,-16.375
0.060,1.510,1.680,2.000,-51.563,-16.375
0.000,1.790,0.860,4.187,-45.125,-11.125
-0.300,1.850,0.150,6.000,-30.375,-5.312
-0.670,2.190,-0.230,4.750,-10.000,-0.125
-0.670,2.190,-0.230,-3.500,5.062,1.125
-0.580,1.940,-0.020,-3.500,5.062,1.125
-0.180,1.230,-0.020,-15.063,12.500,0.812
-0.180,1.230,-0.020,-15.063,12.500,0.812
0.110,0.430,0.720,-18.437,17.062,2.375
0.110,0.430,0.720,-14.625,8.188,2.625
0.220,0.100,1.250,-14.625,8.188,2.625
0.290,0.330,0.840,-7.562,-12.375,-0.500
0.330,0.580,0.140,0.000,-29.312,-2.125
0.330,0.580,0.140,6.250,-35.125,0.375
0.190,0.950,-0.160,6.250,-35.125,0.375
0.050,1.320,-0.390,4.062,-28.500,3.563
0.050,1.320,-0.390,-1.187,-4.750,9.125
-0.330,1.720,-0.990,-1.187,-4.750,9.125
-0.550,1.640,-0.970,-7.625,16.125,12.500
-0.510,1.600,-1.230,-11.688,24.625,10.375
-0.510,1.600,-1.230,-11.688,24.625,10.375
-0.160,0.630,-0.020,-15.375,23.000,4.625
0.030,0.010,0.720,-17.812,11.688,-2.750
0.030,0.010,0.720,-17.812,11.688,-2.750
0.220,-0.350,1.040,-16.812,-6.562,-10.125

-0.460,0.620,2.690,9.375,6.750,16.937
-0.460,0.620,2.690,1.687,3.250,15.188
-0.520,0.850,3.210,1.687,3.250,15.188
-0.430,0.650,3.840,-8.875,-0.812,11.188
-0.430,0.650,3.840,-8.875,-0.812,11.188
-0.460,0.470,4.410,-13.688,-7.875,7.000
-0.550,0.160,5.080,-12.250,-21.062,3.125
-0.550,0.160,5.080,-12.250,-21.062,3.125
-0.550,-0.010,5.470,-6.750,-36.000,1.687
-0.270,-0.110,6.120,-1.500,-47.000,4.500
-0.270,-0.110,6.120,1.937,-55.125,9.125
-0.350,-0.200,5.980,1.937,-55.125,9.125
-0.170,-0.240,5.580,6.250,-63.563,8.625
-0.170,-0.240,5.580,12.875,-63.625,4.687
-0.170,0.040,5.700,12.875,-63.625,4.687
-0.460,1.380,4.930,16.500,-58.125,0.875
-0.620,2.080,4.640,13.813,-54.375,-1.062
-0.620,2.080,4.640,8.313,-54.000,-2.813
-0.810,2.680,4.910,8.313,-54.000,-2.813
-0.770,3.110,4.990,-3.813,-54.188,0.687
-0.770,3.110,4.990,-10.688,-53.063,4.437
-0.440,2.150,4.930,-10.688,-53.063,4.437
-0.130,1.390,5.510,-7.937,-54.750,4.562
0.250,0.320,5.580,-9.500,-52.625,4.437
0.250,0.320,5.580,-15.813,-39.188,6.250
0.050,-0.040,5.300,-15.813,-39.188,6.250
0.150,0.550,4.420,-24.500,-11.500,8.250
0.150,0.550,4.420,-30.812,32.688,12.500
0.310,1.420,2.870,-30.812,32.688,12.500
-0.260,2.420,1.730,-28.687,71.625,17.437
0.360,2.860,0.390,-31.750,92.188,9.500
0.360,2.860,0.390,-28.187,85.750,-10.438
0.870,1.470,0.580,-28.187,85.750,-10.438
1.240,0.060,0.320,-26.812,49.875,-44.688
1.240,0.060,0.320,-26.812,49.875,-44.688
1.440,-0.790,-0.290,-30.312,15.625,-72.188
1.480,-1.740,-2.320,-25.500,1.187,-72.375
0.480,-1.410,-2.790,-14.688,-7.062,-58.188
0.480,-1.410,-2.790,-19.812,-6.875,-41.500
0.310,-0.300,-3.010,-19.812,-6.875,-41.500
0.420,1.270,-4.420,-28.687,16.312,-17.062
0.420,1.270,-4.420,-28.687,16.312,-17.062
-0.350,4.220,-5.240,-17.937,41.563,9.938
-0.440,4.600,-4.720,-8.250,53.250,24.812
-0.320,3.840,-4.240,-2.500,57.375,21.875
-0.320,3.840,-4.240,-2.500,57.375,21.875
-0.150,2.910,-3.310,-7.062,57.250,9.750
1.070,-0.620,-2.660,-22.125,51.875,-10.375
1.070,-0.620,-2.660,-22.125,51.875,-10.375
1.290,-1.260,-2.420,-23.375,34.000,-29.812
1.350,-1.090,-2.680,-9.750,15.438,-36.125
0.530,1.250,-4.030,1.437,4.937,-31.187
0.530,1.250,-4.030,1.437,4.937,-31.187
-0.120,1.800,-3.760,10.938,9.750,-14.563
-0.120,1.800,-3.760,3.563,20.500,1.437
-0.160,1.450,-3.830,3.563,20.500,1.437
0.250,1.160,-4.750,-7.437,28.375,7.937
0.330,0.010,-3.600,6.375,19.875,9.563
0.940,-0.850,-4.420,13.438,3.000,9.875
0.940,-0.850,-4.420,13.438,3.000,9.875
0.690,-1.260,-4.050,8.313,-16.937,13.063
1.370,-0.880,-3.790,19.687,-41.250,18.187
1.370,-0.880,-3.790,19.687,-41.250,18.187
0.800,0.620,-2.330,40.188,-52.188,29.000
0.390,1.640,-1.960,45.063,-56.313,29.250
-0.280,2.530,-2.230,38.500,-56.875,17.625
-0.280,2.530,-2.230,38.500,-56.875,17.625
-0.540,2.570,-2.410,25.812,-56.375,-1.437
-0.540,2.570,-2.410,25.812,-56.375,-1.437
0.140,-0.110,-1.960,15.625,-52.625,-17.187
1.070,-1.430,-1.370,19.375,-46.500,-24.312
1.510,-2.650,-1.130,36.313,-45.500,-32.813
1.510,-2.650,-1.130,49.313,-52.625,-38.188
1.440,-2.820,-1.680,49.313,-52.625,-38.188
0.490,-0.200,-2.330,50.438,-61.875,-30.750
0.490,-0.200,-2.330,50.438,-61.875,-30.750
-0.110,0.900,-2.260,42.125,-71.000,-26.375
-0.250,1.430,-1.760,26.625,-75.063,-29.250
-0.250,1.430,-1.760,13.438,-63.188,-31.187
-0.260,1.430,-2.320,13.438,-63.188,-31.187
-0.520,1.570,-2.280,13.188,-41.313,-24.625
-0.530,1.450,-2.070,11.688,-23.500,-11.938
-0.530,1.450,-2.070,11.688,-23.500,-11.938
-0.540,1.300,-1.600,7.312,-12.125,-1.312
-0.540,1.300,-1.600,11.813,-4.812,0.812
-0.370,1.020,-1.030,11.813,-4.812,0.812
-0.700,0.750,-1.010,18.062,1.750,-2.000
-0.830,0.790,-1.360,24.875,9.313,-5.812
-0.830,0.790,-1.360,28.062,15.563,-11.813
-0.910,0.850,-1.520,28.062,15.563,-11.813
-0.510,1.730,-1.650,23.437,21.875,-11.250
-0.510,1.730,-1.650,17.375,30.500,0.312
-0.460,2.150,-1.540,17.375,30.500,0.312
-0.420,2.180,-1.340,10.688,40.625,14.250
-0.520,2.140,-1.410,9.500,53.250,23.687
-0.520,2.140,-1.410,11.375,62.313,25.125
-0.600,1.480,-1.300,11.375,62.313,25.125
-0.540,0.900,-0.850,1.187,63.625,17.625
-0.540,0.900,-0.850,1.187,63.625,17.625
-0.260,0.450,-0.960,-8.500,57.063,2.875
0.020,0.480,-1.060,-3.313,51.625,-9.625
0.160,1.230,-1.700,8.688,44.813,-12.875
0.160,1.230,-1.700,8.688,44.813,-12.875
0.170,1.050,-2.030,14.125,30.375,-14.625
0.170,1.050,-2.030,11.313,15.188,-14.563
0.340,0.810,-1.960,11.313,15.188,-14.563
0.400,0.800,-1.740,3.875,7.000,-4.562
0.120,1.600,-2.120,1.437,5.625,8.563
0.120,1.600,-2.120,4.875,2.250,16.312
0.000,1.640,-1.560,4.875,2.250,16.312
-0.210,1.270,-1.270,8.063,-2.875,16.750
-0.210,1.270,-1.270,8.063,-2.875,16.750
-0.480,1.020,-1.100,8.938,-8.063,11.500
-0.480,1.020,-1.100,7.812,-14.750,2.188
-0.400,0.510,-1.160,7.812,-14.750,2.188
-0.260,0.320,-1.030,7.625,-20.250,-4.812
0.030,0.140,-1.270,5.875,-21.687,-4.812
0.030,0.140,-1.270,5.875,-21.687,-4.812
0.200,0.950,-1.360,6.187,-21.437,2.500
0.110,1.190,-1.740,4.187,-22.125,11.875
0.110,1.190,-1.740,4.187,-22.125,11.875
-0.250,1.670,-1.910,2.438,-23.562,13.750
-0.490,1.850,-1.880,2.375,-29.437,5.812
-0.210,1.890,-2.130,-1.875,-35.500,-5.937
-0.210,1.890,-2.130,-1.875,-35.500,-5.937
-0.240,1.470,-2.050,-4.750,-40.188,-8.188
-0.450,1.080,-2.400,-0.937,-43.063,-1.875
-0.450,1.080,-2.400,-0.937,-43.063,-1.875
-0.650,0.880,-2.510,6.312,-41.688,2.688
-0.640,0.000,-2.650,9.438,-33.000,6.312
-0.220,0.670,-2.800,10.625,-18.500,13.813
-0.220,0.670,-2.800,10.625,-18.500,13.813
0.040,1.470,-3.230,1.875,-5.437,20.875
0.160,1.940,-3.240,-18.312,10.438,32.438
0.160,1.940,-3.240,-18.312,10.438,32.438
0.630,2.360,-2.310,-32.188,26.062,44.688
0.710,1.290,-2.070,-30.750,38.688,51.188
0.710,1.290,-2.070,-30.750,38.688,51.188
0.430,0.300,-2.170,-17.250,43.688,56.938
0.430,0.300,-2.170,-2.188,40.750,58.688
-0.080,-0.010,-2.320,-2.188,40.750,58.688
-0.860,-0.680,-2.850,4.562,35.250,52.563
-0.860,-0.680,-2.850,4.562,35.250,52.563
-0.840,-0.210,-3.170,3.813,25.062,38.313
-0.690,0.440,-3.410,-2.813,9.875,17.125
-0.160,0.520,-2.800,-21.937,-7.312,-1.687
-0.160,0.520,-2.800,-21.937,-7.312,-1.687
0.540,0.560,-1.290,-39.625,-16.625,-9.750
0.540,0.560,-1.290,-45.000,-10.563,-9.625
0.690,-0.110,-0.950,-45.000,-10.563,-9.625
0.600,-0.750,-0.740,-37.625,-4.187,-8.000
0.830,-0.780,-0.220,-23.000,-5.687,-5.187
0.660,-0.760,-1.150,-8.563,-4.250,3.500
0.660,-0.760,-1.150,-8.563,-4.250,3.500
0.450,-0.390,-1.840,3.313,4.750,17.937
0.450,-0.390,-1.840,19.500,12.500,31.562
0.320,0.050,-2.400,19.500,12.500,31.562
-0.690,1.810,-2.470,32.438,1.312,38.000
-0.690,1.810,-2.470,30.750,-21.875,35.063
-1.110,1.760,-2.000,30.750,-21.875,35.063
-0.970,0.880,-0.720,11.000,-44.063,27.125
-0.620,-0.100,0.670,-12.938,-54.813,17.562
-0.620,-0.100,0.670,-12.938,-54.813,17.562
0.850,-2.030,2.080,-16.125,-45.063,7.500
1.720,-1.900,1.280,-0.625,-23.687,-0.687
1.720,-1.900,1.280,-0.625,-23.687,-0.687
1.510,-0.430,-0.300,13.500,-0.437,1.562
0.630,2.210,-1.600,26.812,13.063,10.125
0.630,2.210,-1.600,22.000,17.062,13.125
-0.430,3.660,-2.620,22.000,17.062,13.125
-1.090,3.530,-2.130,2.438,23.000,16.625
-1.090,3.530,-2.130,-9.250,31.562,17.000
-1.110,2.690,-1.560,-9.250,31.562,17.000
-1.040,2.070,-0.350,-15.188,34.063,12.188
-0.380,0.080,0.700,-25.875,25.812,0.125
-0.380,0.080,0.700,-25.875,25.812,0.125
0.490,-0.290,0.670,-35.875,14.563,-16.500
1.090,0.060,0.750,-40.500,4.125,-25.812
1.090,0.060,0.750,-40.500,4.125,-25.812
0.900,0.840,-0.440,-41.750,-1.375,-26.562
0.920,1.420,-0.950,-60.188,6.750,-18.125
0.320,1.940,-0.620,-58.250,30.125,-3.688
0.320,1.940,-0.620,-58.250,30.125,-3.688
-0.950,1.800,-0.760,-72.750,45.313,13.375
-0.950,1.800,-0.760,-83.688,48.438,16.562
-1.050,-0.100,1.400,-83.688,48.438,16.562
-0.520,-0.250,1.540,-80.688,48.063,7.437
-0.070,-0.170,1.680,-68.000,41.313,-1.312
-0.070,-0.170,1.680,-47.875,29.250,-2.125
0.220,-0.050,0.830,-47.875,29.250,-2.125
0.110,1.530,-1.360,-23.375,20.500,4.375
0.110,1.530,-1.360,-23.375,20.500,4.375
-0.110,1.520,-1.400,-5.625,8.813,7.875
-0.170,1.640,-1.990,-9.875,-3.750,11.563
-0.340,1.690,-1.680,-14.750,-9.375,14.500
-0.120,0.510,1.500,-19.250,-7.625,13.438
-0.120,0.510,1.500,-19.250,-7.625,13.438
0.000,-0.380,2.120,-30.187,-5.500,11.063
0.000,-0.380,2.120,-28.625,2.813,8.125
0.210,-0.710,2.650,-28.625,2.813,8.125
0.340,-0.960,3.000,-18.062,10.813,0.187
0.120,0.010,0.700,-3.688,15.188,-6.312
0.120,0.010,0.700,-3.688,15.188,-6.312
-0.040,0.780,0.500,9.938,16.500,-11.063
-0.550,1.440,-0.100,15.125,16.187,-14.188
-0.550,1.440,-0.100,15.125,16.187,-14.188
-0.890,1.950,-0.400,12.188,18.625,-15.313
-0.890,1.950,-0.400,3.563,16.937,-22.062
-0.820,1.110,1.010,3.563,16.937,-22.062
-0.440,-0.160,1.900,-3.625,15.063,-33.750
0.130,-1.280,2.360,-1.687,18.250,-45.813
0.130,-1.280,2.360,5.250,18.125,-50.500
1.120,-2.270,3.190,5.250,18.125,-50.500
1.410,-2.390,3.520,18.000,18.625,-41.875
1.410,-2.390,3.520,35.813,12.750,-22.000
1.440,-2.380,3.250,35.813,12.750,-22.000
1.000,-1.830,3.310,64.813,-10.000,-2.563
0.500,-0.480,2.520,94.375,-38.313,12.438
0.500,-0.480,2.520,101.813,-55.688,28.375
0.110,0.970,1.490,101.813,-55.688,28.375
-0.190,1.450,1.220,91.750,-55.313,43.875
-0.190,1.450,1.220,91.750,-55.313,43.875
-0.430,1.370,1.210,89.625,-32.063,47.750
-0.480,1.530,2.120,77.625,-9.750,52.250
-0.570,1.190,2.350,56.188,3.313,56.500
-0.570,1.190,2.350,56.188,3.313,56.500
-0.480,1.540,2.810,37.313,12.375,50.063
-0.480,1.540,2.810,22.750,16.812,32.188
-0.610,2.150,3.120,22.750,16.812,32.188
-0.240,2.450,2.350,4.875,15.125,11.313
-0.050,2.230,1.950,-12.188,6.125,-9.188
-0.050,2.230,1.950,-14.188,-1.062,-23.250
-0.020,1.940,1.680,-14.188,-1.062,-23.250
0.030,1.880,1.350,-5.687,3.188,-30.562
0.030,1.880,1.350,-5.687,3.188,-30.562
-0.020,1.410,0.110,3.625,17.375,-32.000
0.030,1.460,0.000,8.938,35.313,-27.750
0.170,1.220,0.460,11.250,45.625,-24.062
0.170,1.220,0.460,11.250,45.625,-24.062
0.520,0.660,1.250,5.312,46.813,-22.750
0.870,-0.320,1.960,-3.250,40.063,-21.312
0.870,-0.320,1.960,-3.250,40.063,-21.312
0.690,-0.050,1.930,-3.563,28.750,-16.437
0.390,0.220,1.560,-2.313,13.750,-9.313
0.390,0.220,1.560,-2.313,13.750,-9.313
-0.270,1.080,0.030,-3.625,4.875,-3.063
-0.440,1.530,-0.730,-4.812,2.813,0.625
-0.440,1.530,-0.730,-12.250,14.750,3.250
-0.550,2.000,-0.970,-12.250,14.750,3.250
-0.620,2.100,-1.010,-12.250,14.750,3.250

-0.450,0.810,2.390,0.062,-25.625,5.375
-0.450,0.810,2.390,-10.438,-24.250,3.188
-0.490,0.640,2.920,-10.438,-24.250,3.188
-0.460,0.480,3.640,-13.563,-22.437,3.625
-0.460,0.480,3.640,-13.563,-22.437,3.625
-0.320,0.300,3.980,-9.813,-23.500,5.625
-0.260,0.150,4.410,-0.875,-28.375,7.187
-0.260,0.150,4.410,-0.875,-28.375,7.187
-0.040,-0.010,4.700,6.250,-28.375,7.562
0.000,-0.520,5.300,9.750,-19.062,9.000
-0.030,-0.300,5.110,6.812,-2.250,11.063
-0.030,-0.300,5.110,6.812,-2.250,11.063
-0.010,-0.080,4.410,-1.750,11.625,11.500
-0.010,-0.080,4.410,-5.750,17.562,8.000
-0.190,0.450,3.550,-5.750,17.562,8.000
-0.340,1.620,2.600,-10.188,9.500,0.500
-0.420,2.100,2.690,-13.500,-13.875,-12.375
-0.420,2.100,2.690,-20.875,-47.125,-27.062
-0.350,2.070,2.930,-20.875,-47.125,-27.062
-0.060,1.680,3.030,-25.000,-68.688,-36.875
-0.060,1.680,3.030,-25.000,-68.688,-36.875
0.290,1.660,2.470,-22.062,-74.813,-42.125
0.520,2.080,2.310,-11.813,-69.438,-33.375
0.460,2.310,2.660,-1.000,-53.875,-16.625
0.460,2.310,2.660,-1.000,-53.875,-16.625
0.210,2.360,3.010,1.125,-32.938,-1.875
0.030,2.280,2.920,-1.625,-14.750,8.813
0.030,2.280,2.920,-1.625,-14.750,8.813
0.060,1.810,3.080,-6.375,-7.187,14.063
0.060,1.810,3.080,-2.938,-11.500,14.563
0.120,1.550,2.970,-2.938,-11.500,14.563
0.350,1.410,1.220,9.250,-20.250,20.500
0.330,2.080,1.550,32.063,-34.750,27.625
0.330,2.080,1.550,42.750,-39.875,32.250
0.160,2.920,2.040,42.750,-39.875,32.250
-0.230,3.550,2.510,34.875,-17.625,36.000
-0.230,3.550,2.510,34.875,-17.625,36.000
-0.810,2.800,2.170,17.562,25.250,33.938
-0.400,1.640,1.330,-15.563,62.625,27.625
-0.040,0.910,0.670,-55.188,72.688,19.125
-0.040,0.910,0.670,-55.188,72.688,19.125
0.230,0.570,0.240,-77.125,53.750,5.562
0.230,0.570,0.240,-80.750,19.750,-13.125
0.330,-1.370,0.350,-80.750,19.750,-13.125
0.290,-2.120,0.150,-75.188,-9.813,-26.687
0.440,-2.060,0.110,-59.688,-25.625,-33.563
0.440,-2.060,0.110,-28.750,-21.125,-40.063
0.640,-1.660,-0.140,-28.750,-21.125,-40.063
0.730,-0.380,-2.390,3.000,-1.437,-40.125
0.730,-0.380,-2.390,3.000,-1.437,-40.125
0.510,0.560,-3.420,13.438,23.187,-21.937
0.200,1.550,-3.960,3.938,48.500,6.500
-0.250,1.900,-3.920,-11.875,60.438,19.750
-0.760,0.620,-2.390,-33.688,47.875,3.313
-0.760,0.620,-2.390,-33.688,47.875,3.313
-0.410,-0.660,-1.980,-45.813,26.812,-29.625
-0.410,-0.660,-1.980,-42.000,6.125,-58.563
0.090,-1.720,-1.900,-42.000,6.125,-58.563
0.980,-2.300,-2.510,-33.688,-7.562,-69.063
1.430,-1.540,-3.020,-15.063,-8.875,-59.250
1.320,-0.270,-3.230,20.812,0.437,-33.875
1.320,-0.270,-3.230,20.812,0.437,-33.875
1.050,0.840,-3.740,50.875,8.000,-4.125
1.050,0.840,-3.740,51.313,-7.000,12.375
0.100,1.880,-4.140,51.313,-7.000,12.375
-0.070,0.670,-3.010,31.375,-36.625,9.000
-0.240,-0.350,-2.650,-0.500,-57.500,-1.312
-0.240,-0.350,-2.650,-11.750,-67.375,-18.562
-0.070,-0.530,-2.240,-11.750,-67.375,-18.562
0.340,-0.930,-1.100,-9.500,-67.625,-39.938
0.340,-0.930,-1.100,-9.500,-67.625,-39.938
0.720,-1.060,-1.140,2.875,-56.563,-50.625
0.490,-1.010,-1.400,21.750,-37.438,-45.750
0.380,-0.210,-1.910,41.125,-14.313,-27.187
-0.340,1.360,-3.540,50.438,4.687,-9.813
-0.340,1.360,-3.540,50.438,4.687,-9.813
-1.080,1.240,-3.600,31.437,2.500,-4.875
-1.080,1.240,-3.600,31.437,2.500,-4.875
-0.510,0.530,-3.650,5.625,-9.313,-10.688
-0.120,0.250,-3.150,-15.813,-16.937,-4.687
-0.320,0.530,-1.430,-16.687,-12.688,-1.312
-0.140,0.660,-1.610,-11.375,2.563,-0.875
-0.140,0.660,-1.610,-11.375,2.563,-0.875
0.070,0.710,-1.970,0.062,26.062,5.125
0.070,0.710,-1.970,15.063,40.750,14.938
0.380,1.310,-2.100,15.063,40.750,14.938
0.380,1.770,-2.940,27.250,33.375,10.750
0.300,1.560,-2.990,33.875,8.688,-0.812
0.300,1.560,-2.990,33.875,8.688,-0.812
0.260,1.320,-2.890,35.375,-17.812,-8.875
0.050,1.250,-2.550,31.000,-35.188,-7.562
0.050,1.250,-2.550,31.000,-35.188,-7.562
-0.100,2.010,-2.070,25.937,-40.000,4.625
-0.100,2.010,-2.070,20.687,-32.375,18.875
-0.420,2.450,-1.730,20.687,-32.375,18.875
-0.460,2.490,-1.490,14.188,-17.750,25.000
-0.370,1.220,-0.890,12.688,-2.688,18.312
-0.370,1.220,-0.890,12.688,-2.688,18.312
-0.220,0.880,-0.630,14.375,11.250,2.938
0.040,0.460,-0.570,17.625,18.000,-16.625
0.040,0.460,-0.570,16.625,15.000,-36.313
0.320,0.240,-0.430,16.625,15.000,-36.313
-0.030,-0.010,-0.760,17.875,12.438,-47.875
-0.130,0.490,-1.500,19.250,15.500,-46.688
-0.130,0.490,-1.500,17.937,18.312,-34.750
-0.390,1.150,-1.950,17.937,18.312,-34.750
-0.690,1.870,-2.290,10.813,17.937,-16.812
-0.690,1.870,-2.290,1.687,14.938,-1.937
-0.970,2.520,-1.850,1.687,14.938,-1.937
-0.790,2.140,-1.300,-2.188,13.688,4.000
-0.810,1.500,-0.730,-0.625,17.687,0.687
-0.810,1.500,-0.730,-0.625,17.687,0.687
-0.490,0.670,-0.700,1.562,21.937,-10.563
-0.490,0.670,-0.700,9.063,19.187,-19.562
0.370,0.210,-0.960,9.063,19.187,-19.562
0.560,0.550,-1.150,20.375,13.813,-18.812
0.530,1.120,-1.570,26.937,9.625,-4.750
0.530,1.120,-1.570,27.500,1.312,10.125
0.090,1.660,-1.670,27.500,1.312,10.125
-0.790,1.580,-1.110,17.250,-4.750,17.812
-0.790,1.580,-1.110,17.250,-4.750,17.812
-0.900,1.090,-0.850,2.250,-2.250,22.000
-0.840,0.880,-0.660,-9.375,4.187,19.250
-0.430,0.660,-0.690,-17.062,7.625,12.063
-0.310,0.390,-0.800,-20.312,8.250,4.687
-0.310,0.390,-0.800,-20.312,8.250,4.687
-0.130,0.020,-0.880,-20.562,7.500,-1.562
-0.130,0.020,-0.880,-17.375,7.812,-2.750
0.260,-0.290,-0.990,-17.375,7.812,-2.750
0.710,0.460,-1.670,-9.250,5.750,4.562
0.600,1.100,-1.950,0.687,-0.250,19.625
0.600,1.100,-1.950,4.000,-11.375,33.750
0.480,1.370,-1.910,4.000,-11.375,33.750
0.240,1.370,-1.880,-1.125,-23.875,41.063
0.240,1.370,-1.880,-1.125,-23.875,41.063
-0.390,1.430,-1.640,-7.187,-33.938,42.500
-0.750,1.180,-1.300,-10.813,-43.813,32.938
-0.750,1.180,-1.300,-10.813,-43.813,32.938
-0.800,0.900,-1.190,-17.750,-47.063,18.000
-0.800,0.730,-1.170,-24.312,-41.313,7.125
-0.800,0.730,-1.170,-17.750,-24.312,1.500
0.150,0.050,-1.120,-17.750,-24.312,1.500
0.070,0.160,-1.850,10.125,-2.313,5.250
0.070,0.160,-1.850,14.688,4.875,16.875
-0.010,0.610,-1.760,14.688,4.875,16.875
-0.090,0.170,-1.470,16.250,8.688,26.312
-0.090,0.170,-1.470,10.188,12.938,30.875
-0.080,-0.650,-0.750,10.188,12.938,30.875
-0.080,-0.650,-0.750,3.875,24.000,34.063
0.160,-0.460,-1.150,3.875,24.000,34.063
0.450,0.300,-1.740,3.125,34.188,43.875
0.450,0.300,-1.740,3.938,34.438,54.438
0.680,2.540,-2.840,3.938,34.438,54.438
0.410,3.210,-2.990,6.625,24.937,58.750
-0.240,3.120,-2.630,7.250,8.313,53.688
-0.240,3.120,-2.630,7.250,8.313,53.688
-0.400,2.100,-2.350,-0.625,-7.312,33.125
0.170,-0.240,-2.280,-7.187,-18.625,7.625
0.170,-0.240,-2.280,-8.813,-29.187,-10.688
0.370,-0.530,-2.270,-8.813,-29.187,-10.688
0.410,-0.610,-2.080,-1.000,-40.813,-23.812
0.470,-0.230,-2.240,7.250,-44.688,-28.937
0.470,-0.230,-2.240,4.062,-39.750,-19.750
0.170,2.020,-3.430,4.062,-39.750,-19.750
-0.120,3.230,-4.520,-6.250,-24.375,3.625
-0.120,3.230,-4.520,-16.875,-0.937,33.063
-0.430,3.920,-4.980,-16.875,-0.937,33.063
-0.900,3.040,-4.790,-26.000,13.813,46.625
-0.300,1.050,-3.610,-32.563,16.000,42.313
-0.300,1.050,-3.610,-32.563,16.000,42.313
0.140,0.390,-2.780,-30.000,4.500,32.313
0.530,-0.510,-2.410,-23.250,-12.500,17.000
0.530,-0.510,-2.410,-10.563,-36.125,0.312
0.610,-0.220,-2.490,-10.563,-36.125,0.312
0.430,0.660,-2.650,2.875,-61.938,-14.500
0.000,1.330,-2.980,5.375,-74.313,-18.812
0.000,1.330,-2.980,5.375,-74.313,-18.812
-0.270,1.660,-2.730,-2.938,-68.500,-12.875
-0.560,2.100,-3.210,-13.438,-46.000,-0.937
-0.560,2.100,-3.210,-13.438,-46.000,-0.937
-1.200,1.130,-3.110,-18.562,-14.500,16.500
-1.840,-0.400,-1.630,-16.875,9.188,32.625
-1.490,-1.280,-0.980,-17.750,18.250,32.125
-1.490,-1.280,-0.980,-28.250,12.438,19.562
0.020,-3.020,0.560,-28.250,12.438,19.562
0.370,-3.230,0.990,-38.625,-1.437,8.500
0.370,-3.230,0.990,-38.625,-1.437,8.500
0.150,-2.540,0.350,-28.312,-5.125,8.313
-0.410,-0.660,-0.620,0.062,6.000,17.062
-1.340,3.790,-1.960,16.312,27.750,22.875
-1.340,3.790,-1.960,16.312,27.750,22.875
-1.480,4.650,-2.240,1.000,49.000,16.812
-1.090,3.710,-1.750,-31.125,68.750,-7.125
-1.090,3.710,-1.750,-31.125,68.750,-7.125
0.000,1.680,-0.420,-56.313,89.875,-36.500
0.070,-1.330,1.430,-54.875,110.500,-50.000
0.210,-1.540,2.960,-46.750,121.250,-51.000
0.210,-1.540,2.960,-46.750,121.250,-51.000
0.260,-1.590,3.670,-44.875,96.875,-55.125
0.000,-1.710,3.380,-46.750,69.625,-60.438
0.000,-1.710,3.380,-46.750,69.625,-60.438
-0.160,0.500,0.250,-46.875,59.375,-63.938
0.140,1.660,-0.600,-47.625,67.500,-47.500
0.220,1.880,-0.520,-43.625,82.438,-16.250
0.220,1.880,-0.520,-43.625,82.438,-16.250
0.150,1.670,-0.020,-33.750,86.375,2.938
0.410,-0.120,1.340,-30.437,78.938,-2.438
0.410,-0.120,1.340,-30.437,78.938,-2.438
0.830,-1.010,2.540,-30.562,67.750,-12.438
0.870,-0.680,3.470,-22.062,42.500,-15.438
0.380,-0.820,4.010,-14.250,3.500,-20.250
0.380,-0.820,4.010,-14.250,3.500,-20.250
0.140,0.150,3.130,-9.938,-6.250,-20.000
0.140,0.150,3.130,1.625,7.750,-6.437
-0.320,1.450,3.010,1.625,7.750,-6.437
-0.280,1.670,2.810,7.812,20.687,-0.187
-0.020,0.610,1.620,8.250,35.625,3.125
-0.020,0.610,1.620,8.250,35.625,3.125
-0.070,0.430,1.860,29.312,40.438,3.500
-0.240,0.300,2.010,39.250,26.437,1.312
-0.240,0.300,2.010,39.250,26.437,1.312
-0.410,0.650,2.360,34.813,9.125,-3.438
-0.410,0.650,2.360,24.437,-9.063,-9.188
-0.400,1.090,3.030,24.437,-9.063,-9.188
-0.280,0.460,3.300,12.000,-23.750,-13.313
0.070,0.320,3.100,6.437,-28.937,-13.813
0.070,0.320,3.100,11.688,-15.625,-3.250
0.230,0.350,3.090,11.688,-15.625,-3.250
0.330,0.180,2.450,26.875,5.875,9.250
0.330,0.180,2.450,45.250,29.062,23.437
0.180,0.870,1.470,45.250,29.062,23.437
-0.220,1.490,1.240,64.813,42.875,40.500
-0.860,1.570,2.010,65.625,36.000,46.000
-0.860,1.570,2.010,47.500,17.625,37.188
-1.000,1.170,2.080,47.500,17.625,37.188
-0.550,0.890,2.040,24.312,3.188,24.375
-0.550,0.890,2.040,24.312,3.188,24.375
-0.140,1.050,1.630,8.813,3.563,17.875
-0.100,1.540,1.400,5.875,10.813,18.312
-0.040,1.650,1.210,3.313,15.375,19.250
-0.040,1.650,1.210,3.313,15.375,19.250
-0.340,1.320,1.290,0.750,15.063,17.312
-0.340,1.320,1.290,1.250,12.250,9.875
-0.380,1.160,1.020,1.250,12.250,9.875
-0.390,0.540,1.960,2.313,11.813,3.563
-0.370,0.110,1.960,2.313,10.625,-1.187
-0.370,0.110,1.960,2.625,6.187,-6.625
-0.110,0.240,1.440,2.625,6.187,-6.625
0.000,0.640,0.960,3.438,1.125,-7.750
0.000,0.640,0.960,3.438,1.125,-7.750

-0.610,1.340,2.470,3.188,20.250,19.812
-0.610,1.340,2.470,3.188,20.250,19.812
-0.550,1.470,3.120,-4.000,18.500,14.500
-0.550,1.470,3.120,-9.063,6.812,4.687
-0.360,1.210,3.820,-9.063,6.812,4.687
-0.330,0.610,4.130,-9.500,-2.563,-3.313
-0.330,0.610,4.130,-5.000,-9.563,-7.187
-0.080,0.000,5.000,-5.000,-9.563,-7.187
-0.130,-0.320,5.430,-0.625,-15.000,-6.687
-0.200,-0.600,5.580,0.625,-17.875,-5.375
-0.200,-0.600,5.580,0.625,-17.875,-5.375
-0.250,-0.730,5.480,-4.750,-16.000,-5.000
-0.160,-0.560,4.130,-13.188,-6.875,-5.500
-0.160,-0.560,4.130,-13.188,-6.875,-5.500
-0.310,0.090,3.360,-21.312,8.313,-4.062
-0.220,0.790,3.040,-30.250,25.687,0.437
-0.350,1.370,3.150,-44.750,35.750,6.187
-0.350,1.370,3.150,-44.750,35.750,6.187
-0.630,1.080,3.290,-56.813,31.812,7.937
-0.630,1.080,3.290,-62.688,22.625,6.375
-0.360,0.700,3.420,-62.688,22.625,6.375
0.320,0.450,3.450,-58.313,13.063,4.062
0.690,0.310,3.690,-38.125,0.125,1.812
0.070,0.380,3.210,4.312,-7.125,1.250
0.070,0.380,3.210,4.312,-7.125,1.250
-0.180,0.670,2.880,23.500,-9.188,0.312
-0.180,0.670,2.880,23.500,-9.188,0.312
0.000,1.250,1.710,12.313,-10.875,-4.437
0.000,1.250,1.710,-1.062,-15.313,-9.125
0.030,3.370,0.070,-1.062,-15.313,-9.125
-0.240,3.760,0.260,-3.625,-24.625,-7.812
0.030,3.500,0.300,-6.875,-32.750,-7.250
0.030,3.500,0.300,-13.500,-39.750,-12.063
0.060,2.990,0.410,-13.500,-39.750,-12.063
0.250,0.690,0.870,-16.750,-47.750,-16.812
0.250,0.690,0.870,-16.750,-47.750,-16.812
0.950,-0.260,0.810,-18.312,-56.438,-26.937
0.830,-0.590,0.590,-8.375,-68.625,-36.813
0.220,-0.690,0.070,11.500,-66.938,-31.937
0.220,-0.690,0.070,11.500,-66.938,-31.937
-0.360,0.600,-1.310,20.875,-52.563,-12.813
-0.360,0.600,-1.310,20.687,-35.375,7.625
-0.550,1.680,-1.670,20.687,-35.375,7.625
-0.700,2.600,-1.590,16.187,-22.375,21.375
-0.280,2.910,-1.570,-1.187,-15.688,23.312
-0.080,1.720,-1.260,-17.312,-13.688,19.625
-0.080,1.720,-1.260,-17.312,-13.688,19.625
0.080,0.550,-0.740,-19.375,-13.313,11.750
0.080,0.550,-0.740,-21.312,-3.625,5.875
0.390,-0.460,-0.980,-21.312,-3.625,5.875
0.510,-1.060,-1.120,-18.062,3.750,6.125
0.310,-0.880,-0.940,-0.750,-3.750,3.500
-0.130,-0.210,-1.780,20.750,-16.937,-7.250
-0.130,-0.210,-1.780,20.750,-16.937,-7.250
-0.360,0.790,-2.500,41.125,-20.687,-16.750
-0.360,0.790,-2.500,44.938,-16.000,-19.250
-0.630,2.000,-3.390,44.938,-16.000,-19.250
-0.280,2.420,-3.350,35.313,-9.625,-22.375
0.060,2.100,-2.930,14.625,-12.563,-24.125
0.370,2.070,-2.460,-5.312,-14.813,-18.250
0.370,2.070,-2.460,-5.312,-14.813,-18.250
0.510,0.390,-1.800,-12.750,-8.625,-8.500
0.510,0.390,-1.800,-8.625,-2.000,-5.125
0.360,-1.020,-0.670,-8.625,-2.000,-5.125
0.130,-2.170,-0.330,5.562,1.562,-8.813
0.080,-3.000,-0.560,22.000,13.813,-11.813
0.140,-1.170,-2.360,29.875,28.625,-6.687
0.140,-1.170,-2.360,29.875,28.625,-6.687
-0.120,-0.110,-2.970,35.125,35.938,4.125
-0.120,-0.110,-2.970,36.563,31.125,10.625
-0.420,1.070,-3.310,36.563,31.125,10.625
-0.320,2.090,-3.550,28.187,17.812,11.875
-0.110,2.680,-2.470,23.750,7.500,12.250
-0.110,2.680,-2.470,23.750,7.500,12.250
-0.310,1.220,-1.280,16.187,-0.625,12.813
0.060,-0.450,-1.120,32.063,9.500,0.312
0.060,-0.450,-1.120,32.063,9.500,0.312
0.090,-1.840,-1.230,32.063,9.500,0.312
0.300,-2.350,-2.160,40.500,19.875,9.313
0.300,-2.350,-2.160,40.500,19.875,9.313
-0.030,-1.000,-2.590,35.250,17.812,22.250
-0.370,0.380,-2.320,19.500,-12.438,21.562
-0.370,0.380,-2.320,14.625,-14.750,3.000
-0.550,1.620,-2.220,14.625,-14.750,3.000
-0.130,2.770,-2.570,14.625,-14.750,3.000
-0.130,2.770,-2.570,10.688,9.625,-17.625
0.070,2.320,-2.490,10.688,9.625,-17.625
0.570,1.500,-2.520,10.500,26.000,-9.625
1.000,0.880,-2.580,8.625,33.000,4.812
1.000,0.880,-2.580,8.625,33.000,4.812
0.970,1.050,-2.350,4.000,29.125,17.812
0.740,1.350,-2.240,1.500,14.500,21.187
0.740,1.350,-2.240,1.500,14.500,21.187
0.390,1.550,-2.330,3.438,-7.750,3.813
-0.320,1.900,-2.190,1.125,-28.312,-25.562
-0.530,1.960,-1.650,-4.125,-39.500,-49.188
-0.530,1.960,-1.650,-4.125,-39.500,-49.188
-0.470,1.410,-1.320,-12.063,-36.938,-62.813
-0.470,1.410,-1.320,-12.125,-21.875,-63.313
-0.070,0.960,-1.280,-12.125,-21.875,-63.313
0.390,0.550,-1.620,-0.875,-3.438,-48.000
0.430,0.020,-1.610,4.500,6.062,-28.812
0.430,0.020,-1.610,4.625,6.437,-17.125
0.460,-0.400,-1.810,4.625,6.437,-17.125
0.180,-0.190,-1.480,4.062,2.188,-13.875
0.180,-0.190,-1.480,4.062,2.188,-13.875
-0.210,0.670,-0.870,1.312,-3.500,-22.812
-0.610,0.740,-0.820,-5.687,-7.312,-37.250
-0.610,0.740,-0.820,-12.250,0.000,-43.813
-0.660,0.580,-0.840,-12.250,0.000,-43.813
-0.480,0.420,-1.280,-12.625,16.125,-37.063
0.030,0.460,-1.520,-10.938,34.750,-19.875
0.030,0.460,-1.520,-10.938,34.750,-19.875
0.270,0.380,-1.650,-6.687,45.125,-0.125
0.270,0.380,-1.650,-6.687,45.125,-0.125
0.410,0.410,-1.750,1.062,44.500,15.313
0.350,0.440,-1.590,10.313,38.000,26.750
0.120,0.950,-2.260,15.938,24.437,34.813
0.120,0.950,-2.260,15.938,24.437,34.813
-0.070,1.450,-2.290,20.062,6.375,36.063
-0.170,1.430,-1.820,20.750,-7.937,35.438
-0.170,1.430,-1.820,20.750,-7.937,35.438
-0.250,0.710,-1.170,15.188,-15.000,33.375
-0.180,0.320,-1.080,9.063,-14.688,32.750
-0.180,0.320,-1.080,8.875,-8.563,36.750
-0.220,0.560,-0.830,8.875,-8.563,36.750
-0.340,0.940,-0.740,6.500,0.250,38.125
-0.340,0.940,-0.740,6.500,0.250,38.125
-0.330,1.450,-0.880,-0.937,8.563,31.312
-0.330,1.450,-0.880,-9.938,13.375,22.000
-0.050,1.260,-1.050,-9.938,13.375,22.000
0.070,1.050,-1.210,-14.250,15.813,17.375
0.290,0.880,-1.380,-17.062,13.688,15.750
0.290,0.880,-1.380,-17.062,13.688,15.750
0.400,0.460,-1.380,-18.437,6.500,15.063
0.400,0.460,-1.380,-18.437,6.500,15.063
0.300,0.670,-1.670,-16.750,0.000,13.438
0.130,0.970,-1.620,-14.875,-6.125,9.625
-0.100,1.080,-1.490,-16.250,-7.687,1.750
-0.100,1.080,-1.490,-20.625,-4.875,-4.687
-0.030,1.210,-1.920,-20.625,-4.875,-4.687
0.310,1.360,-2.060,-23.062,-1.000,-5.250
0.310,1.360,-2.060,-23.062,-1.000,-5.250
0.480,1.700,-2.020,-25.500,9.125,5.625
0.430,1.640,-2.320,-27.750,23.500,25.812
0.430,1.640,-2.320,-27.750,23.500,25.812
0.190,1.290,-2.470,-25.312,33.000,40.438
-0.310,1.550,-2.370,-20.375,39.375,43.063
-0.310,1.550,-2.370,-21.625,35.188,30.937
-0.410,1.840,-2.130,-21.625,35.188,30.937
-0.410,1.840,-2.130,-25.125,21.500,9.313
-0.220,1.890,-2.040,-25.125,21.500,9.313
-0.050,1.660,-1.490,-24.562,10.125,-12.000
0.230,1.460,-1.920,-19.937,7.062,-25.062
0.480,1.660,-2.520,-19.562,7.187,-22.625
0.480,1.660,-2.520,-19.562,7.187,-22.625
1.060,3.090,-3.190,-18.250,12.250,-7.875
1.060,3.090,-3.190,-18.750,18.562,12.875
0.840,3.820,-3.080,-18.750,18.562,12.875
0.370,3.600,-2.840,-19.375,23.812,26.750
-0.260,2.430,-2.380,-22.062,25.750,21.062
-0.640,0.050,-1.830,-26.625,20.125,1.000
-0.640,0.050,-1.830,-26.625,20.125,1.000
-0.180,-0.650,-1.680,-27.500,-2.875,-20.000
-0.180,-0.650,-1.680,-21.937,-35.500,-35.313
0.390,-1.120,-1.420,-21.937,-35.500,-35.313
0.920,-1.400,-1.450,-4.000,-61.438,-35.563
0.880,-1.510,-1.960,23.062,-76.688,-24.437
0.730,-0.930,-2.150,40.375,-74.875,-4.875
0.730,-0.930,-2.150,40.375,-74.875,-4.875
0.760,0.170,-2.630,36.438,-55.500,26.687
0.760,0.170,-2.630,24.687,-28.375,56.438
0.300,0.930,-3.010,24.687,-28.375,56.438
-0.280,2.400,-2.360,13.063,-5.562,70.250
-0.410,2.830,-2.050,5.437,8.063,68.250
-0.790,2.910,-1.410,-2.125,8.750,58.500
-0.790,2.910,-1.410,-2.125,8.750,58.500
-1.220,2.270,-1.470,-7.875,-7.812,43.938
-1.220,2.270,-1.470,-18.000,-28.437,23.750
-1.530,0.680,-0.310,-18.000,-28.437,23.750
-0.990,-0.350,0.280,-26.562,-38.563,0.437
-0.150,-1.530,0.120,-33.875,-38.750,-12.125
1.480,-1.170,-1.540,-26.687,-33.375,-9.125
1.480,-1.170,-1.540,-26.687,-33.375,-9.125
1.320,-0.440,-2.140,-10.813,-28.687,2.688
1.320,-0.440,-2.140,-8.625,-19.250,18.437
0.930,0.710,-2.610,-8.625,-19.250,18.437
0.430,1.610,-2.240,-8.375,-6.312,32.438
-0.340,1.650,-0.390,-10.688,0.375,36.125
-0.340,1.650,-0.390,-15.250,-2.563,28.125
-0.680,0.910,0.000,-15.250,-2.563,28.125
-1.180,0.260,0.120,-8.563,-14.000,11.250
-1.180,0.260,0.120,-8.563,-14.000,11.250
-0.890,0.010,0.350,-3.500,-29.625,-5.750
0.140,-0.910,1.150,-1.125,-33.500,-14.250
0.740,-1.480,0.750,-2.563,-22.000,-13.438
0.740,-1.480,0.750,-3.938,-12.063,-5.750
0.850,-1.150,0.280,-3.938,-12.063,-5.750
0.850,-1.150,0.280,-3.125,-4.437,0.812
0.850,-0.380,-0.190,-3.125,-4.437,0.812
-0.200,1.500,-0.910,-3.188,3.063,-1.562
-0.200,1.500,-0.910,-9.000,9.250,-10.875
-0.630,1.250,-0.720,-9.000,9.250,-10.875
-0.810,0.780,-0.310,-14.250,19.937,-18.812
-0.320,0.540,0.480,-10.688,25.062,-25.312
0.380,-2.040,1.800,-5.375,17.187,-28.000
0.380,-2.040,1.800,-5.375,17.187,-28.000
0.620,-2.970,2.120,7.875,1.437,-22.937
0.620,-2.970,2.120,20.625,-8.375,-6.812
0.790,-2.850,2.400,20.625,-8.375,-6.812
0.740,-0.930,1.330,23.687,-13.563,9.500
0.550,0.450,0.910,20.062,-14.563,21.812
0.550,0.450,0.910,20.062,-14.563,21.812
-0.160,1.940,0.540,15.750,-7.812,26.312
-0.750,2.620,0.460,-1.250,2.250,16.750
-0.750,2.620,0.460,-1.250,2.250,16.750
-0.920,1.890,1.670,-25.312,11.125,-0.187
-0.440,0.910,1.860,-34.250,20.562,-22.750
0.000,0.250,2.020,-22.812,22.187,-40.563
0.000,0.250,2.020,-22.812,22.187,-40.563
0.390,-0.210,2.230,-2.938,18.187,-46.750
0.390,-0.210,2.230,9.875,23.500,-38.313
0.330,-0.880,2.650,9.875,23.500,-38.313
0.360,-0.700,2.620,7.562,34.313,-22.437
0.610,0.020,1.970,-0.750,47.125,-10.250
0.710,1.050,1.080,-4.125,61.750,-0.562
0.710,1.050,1.080,-4.125,61.750,-0.562
0.160,3.740,0.320,-3.688,66.938,8.500
0.160,3.740,0.320,-15.063,60.563,6.125
-0.370,3.940,0.350,-15.063,60.563,6.125
-0.720,2.890,0.690,-30.000,50.000,-9.875
-0.390,1.550,0.920,-39.438,44.188,-23.562
0.180,-1.030,2.210,-38.188,39.250,-22.750
0.180,-1.030,2.210,-38.188,39.250,-22.750
0.750,-1.010,2.340,-23.250,37.125,-15.063
0.750,-1.010,2.340,-2.813,37.688,-0.875
0.930,-0.370,2.150,-2.813,37.688,-0.875
0.640,0.190,1.610,7.000,30.812,12.063
0.230,1.500,0.690,8.438,19.937,16.062
0.160,2.230,0.450,8.938,10.250,12.438
0.160,2.230,0.450,8.938,10.250,12.438
0.210,2.690,0.480,5.375,7.812,9.188
0.210,2.690,0.480,5.375,7.812,9.188
0.110,1.520,1.270,-0.062,7.750,7.125
0.130,0.660,1.340,-2.250,8.500,8.188
-0.200,-0.020,1.800,-1.250,3.563,12.625
-0.200,-0.020,1.800,-1.250,3.563,12.625
-0.280,-0.480,2.260,-1.187,-12.438,13.625
-0.160,-0.540,2.490,3.688,-28.250,9.188
-0.160,-0.540,2.490,3.688,-28.250,9.188

-2.220,3.100,-0.830,8.625,-4.437,37.188
-2.220,3.100,-0.830,5.625,-3.188,9.688
-0.090,1.570,-0.790,5.625,-3.188,9.688
0.710,-0.130,1.210,57.063,-1.000,-27.875
0.710,-0.130,1.210,57.063,-1.000,-27.875
0.920,-1.030,1.440,28.812,-3.875,-20.250
0.920,-1.030,1.440,-16.625,-4.000,3.125
0.420,-0.250,-0.970,-16.625,-4.000,3.125
0.680,0.290,-1.270,-20.500,-5.812,19.937
0.330,0.290,-1.100,-4.687,-12.000,33.000
0.330,0.290,-1.100,-4.687,-12.000,33.000
-0.120,0.820,-1.290,6.062,-16.625,40.813
-0.950,1.830,-1.460,7.000,-14.000,42.063
-0.950,1.830,-1.460,7.000,-14.000,42.063
-1.210,1.730,-0.660,17.187,-7.312,31.062
-0.950,1.060,0.190,28.000,0.875,10.375
-0.290,0.010,0.730,25.125,7.687,-5.687
-0.290,0.010,0.730,25.125,7.687,-5.687
0.340,0.580,0.830,20.500,10.750,-6.625
0.340,0.580,0.830,20.500,10.750,-6.625
0.410,1.760,1.380,6.562,14.313,0.875
0.460,1.280,-0.320,-24.062,19.375,0.562
0.460,1.280,-0.320,-24.062,19.375,0.562
-0.440,1.140,-1.760,-25.625,18.687,0.312
-0.720,1.700,-1.550,-19.000,14.125,3.313
-0.720,1.700,-1.550,-16.062,11.625,-0.125
-0.370,1.670,-0.990,-16.062,11.625,-0.125
-0.180,1.250,-0.670,-7.375,14.438,-7.312
-0.180,1.250,-0.670,4.812,13.375,-14.000
0.010,0.470,0.000,4.812,13.375,-14.000
0.140,0.330,0.760,18.000,7.937,-17.875
0.240,-0.090,0.600,15.500,1.375,-15.500
0.240,-0.090,0.600,15.500,1.375,-15.500
0.250,-0.020,0.050,8.875,7.625,-5.812
0.180,0.930,-0.350,9.500,19.750,4.875
0.180,0.930,-0.350,9.500,19.750,4.875
-0.070,0.740,-0.330,14.063,31.125,9.813
0.420,0.670,-0.390,16.000,42.063,12.250
0.500,1.100,0.090,32.938,51.938,12.188
0.500,1.100,0.090,32.938,51.938,12.188
-0.680,1.870,0.430,46.125,56.375,7.750
-0.680,1.870,0.430,46.125,56.375,7.750
-0.520,2.510,0.420,37.625,50.688,-3.000
-0.400,2.650,1.150,25.187,43.625,-16.250
-0.050,1.870,1.600,5.750,38.750,-27.562
-0.050,1.870,1.600,-7.000,35.625,-30.250
0.280,0.600,2.120,-7.000,35.625,-30.250
0.420,0.470,2.080,-6.125,26.437,-26.937
0.420,0.470,2.080,-6.125,26.437,-26.937
0.370,0.670,1.750,-0.625,7.375,-26.000
0.160,1.250,1.590,2.438,-6.812,-21.937
-0.680,2.130,2.090,-0.125,-19.187,-19.875
-0.680,2.130,2.090,-0.125,-19.187,-19.875
-0.380,1.920,2.570,-8.250,-37.438,-20.437
-0.390,1.620,3.700,-7.625,-48.500,-17.312
-0.390,1.620,3.700,-7.625,-48.500,-17.312
-0.350,1.240,5.130,-6.562,-51.125,-9.625
-0.350,1.240,5.130,-4.937,-39.063,2.250
0.040,1.220,5.260,-4.937,-39.063,2.250
-0.040,1.000,5.390,-7.187,-29.812,15.875
0.140,0.120,5.950,-7.125,-26.187,25.625
0.140,0.120,5.950,4.062,-24.312,31.500
-0.420,-0.350,5.870,4.062,-24.312,31.500
-1.030,0.090,6.100,25.312,-17.312,38.188
-1.030,0.090,6.100,25.312,-17.312,38.188
-1.360,0.400,6.430,31.687,-7.750,44.375
-1.310,0.540,6.560,23.187,0.625,46.125
-1.190,0.620,3.640,14.313,-0.312,44.688
-1.190,0.620,3.640,14.313,-0.312,44.688
-0.780,1.450,2.350,8.188,-1.250,44.063
-0.780,1.450,2.350,5.875,11.188,45.938
-0.270,1.300,2.750,5.875,11.188,45.938
0.100,0.860,2.940,-7.875,41.313,38.438
-0.830,-0.010,3.350,-23.812,75.500,31.625
-0.830,-0.010,3.350,-36.563,94.688,25.812
-0.250,-0.570,3.730,-36.563,94.688,25.812
0.530,-1.480,2.820,-33.688,74.188,8.688
0.530,-1.480,2.820,-33.688,74.188,8.688
1.010,-1.470,1.290,-8.625,62.250,2.313
0.090,-0.930,1.130,22.312,77.563,12.000
0.320,-0.210,-0.310,26.125,90.500,20.187
0.320,-0.210,-0.310,7.125,81.250,19.500
0.870,1.580,-2.430,7.125,81.250,19.500
1.510,3.530,-2.980,-6.062,70.438,18.000
1.510,3.530,-2.980,-6.062,70.438,18.000
1.400,3.780,-2.530,6.625,52.563,15.625
0.030,3.830,-1.740,22.437,18.375,10.625
-1.000,2.170,0.290,20.125,-17.812,-5.812
-1.000,2.170,0.290,2.313,-63.063,-46.375
-1.220,-2.110,1.070,2.313,-63.063,-46.375
-0.330,-2.640,0.450,-23.875,-101.500,-104.750
-0.330,-2.640,0.450,-23.875,-101.500,-104.750
0.710,-3.400,-0.230,-55.438,-129.375,-133.500
1.100,-3.010,-0.250,-82.188,-157.000,-143.500
0.690,-0.790,-0.190,-80.125,-163.000,-146.375
1.110,-1.070,-1.380,-55.250,-136.187,-140.312
1.110,-1.070,-1.380,-55.250,-136.187,-140.312
2.820,-2.610,-2.660,-19.250,-88.438,-118.188
2.820,-2.610,-2.660,32.375,-57.813,-78.250
0.610,0.080,-3.050,32.375,-57.813,-78.250
-0.770,-0.890,-3.510,68.500,-60.125,-64.500
-0.520,-1.970,-2.400,54.313,-83.625,-65.500
-0.520,-1.970,-2.400,39.438,-88.375,-69.625
-0.390,-2.860,-2.380,39.438,-88.375,-69.625
0.720,-2.230,-2.970,24.437,-78.563,-73.563
0.720,-2.230,-2.970,24.437,-78.563,-73.563
1.110,0.000,-4.060,22.062,-62.188,-64.000
1.100,0.060,-3.680,49.875,-36.375,-32.000
1.170,-0.470,-3.780,84.000,-13.500,6.000
1.170,-0.470,-3.780,84.000,-13.500,6.000
1.210,-0.310,-4.230,114.250,-1.375,34.750
-1.070,1.510,-3.920,124.125,-13.000,44.563
-1.070,1.510,-3.920,124.125,-13.000,44.563
-1.400,1.040,-3.560,105.938,-30.500,35.063
-1.400,1.040,-3.560,71.000,-36.188,14.625
-1.050,0.790,-3.770,71.000,-36.188,14.625
-1.240,1.990,-3.290,47.063,-36.000,-10.188
-1.870,2.190,-3.110,34.313,-27.687,-11.000
-1.870,2.190,-3.110,0.375,-19.375,-13.125
-1.330,1.950,-3.540,0.375,-19.375,-13.125
-1.230,1.800,-3.290,-25.187,-9.500,-9.375
-1.230,1.800,-3.290,-37.250,4.000,-4.500
-0.420,0.590,-2.290,-37.250,4.000,-4.500
-0.080,0.690,-2.220,-41.750,20.312,-2.813
0.050,1.320,-1.990,-26.937,36.563,2.688
0.050,1.320,-1.990,-1.187,53.063,9.625
0.070,1.970,-2.680,-1.187,53.063,9.625
-0.220,2.300,-3.070,17.562,58.063,9.938
-0.220,2.300,-3.070,27.000,56.250,6.062
-0.550,2.030,-3.250,27.000,56.250,6.062
-0.810,1.900,-2.780,27.750,48.250,5.000
-0.820,1.610,-2.030,20.875,46.000,5.750
-0.820,1.610,-2.030,12.250,56.813,7.375
-0.270,1.330,-2.380,12.250,56.813,7.375
0.140,1.350,-2.710,3.500,64.875,13.375
0.140,1.350,-2.710,-6.062,57.500,21.000
0.420,1.410,-2.330,-6.062,57.500,21.000
0.550,0.930,-2.030,-12.625,39.688,20.250
0.420,1.240,-1.660,-10.875,21.937,17.125
0.420,1.240,-1.660,-10.875,21.937,17.125
0.240,1.130,-1.410,-7.500,8.563,16.312
0.200,0.860,-1.270,-4.375,0.812,11.563
0.200,0.860,-1.270,-4.375,0.812,11.563
0.010,1.100,-1.620,5.250,-1.625,3.688
-0.110,1.430,-1.400,20.000,-0.812,-0.437
-0.260,1.240,-1.220,20.000,-4.062,-3.188
-0.260,1.240,-1.220,20.000,-4.062,-3.188
-0.120,0.940,-1.080,15.000,-5.000,-7.937
-0.120,0.940,-1.080,12.250,0.250,-7.500
-0.430,1.190,-1.160,12.250,0.250,-7.500
-0.510,1.480,-1.410,14.688,13.563,-1.687
-0.430,1.570,-1.730,12.813,25.125,5.000
-0.430,1.570,-1.730,8.125,30.562,7.437
-0.030,1.450,-2.230,8.125,30.562,7.437
0.410,1.590,-2.340,8.938,26.812,10.875
0.410,1.590,-2.340,8.938,26.812,10.875
0.120,1.430,-2.020,13.250,14.688,12.938
-0.100,1.310,-2.180,18.625,6.062,11.188
-0.100,1.310,-2.180,18.625,6.062,11.188
-0.070,1.180,-2.030,19.437,-2.250,9.813
0.180,0.390,-2.090,19.500,-8.563,5.812
0.180,0.390,-2.090,16.312,-9.188,3.750
0.250,0.580,-2.170,16.312,-9.188,3.750
0.150,0.740,-2.710,13.875,-3.438,8.250
0.150,0.740,-2.710,13.875,-3.438,8.250
0.360,0.870,-3.340,12.625,-1.500,18.437
-0.080,1.770,-2.430,12.313,-4.875,31.500
-0.090,1.800,-2.490,6.437,-5.437,39.625
-0.090,1.800,-2.490,6.437,-5.437,39.625
-0.170,1.380,-2.240,-2.375,-6.312,35.875
-0.170,1.380,-2.240,-13.313,-10.688,22.375
-0.130,1.120,-2.000,-13.313,-10.688,22.375
0.030,0.160,-2.010,-21.625,-15.063,5.625
0.230,0.290,-2.120,-25.687,-20.125,-8.938
0.230,0.290,-2.120,-24.500,-20.375,-19.250
0.360,0.580,-2.820,-24.500,-20.375,-19.250
-0.110,2.290,-4.050,-20.687,-13.625,-21.187
-0.110,2.290,-4.050,-20.687,-13.625,-21.187
-0.780,2.770,-3.840,-19.812,-2.313,-16.125
-0.480,2.350,-3.320,-29.062,20.187,-2.688
-0.480,2.350,-3.320,-42.750,48.438,16.437
-0.130,1.840,-3.540,-42.750,48.438,16.437
0.670,0.190,-2.970,-57.063,66.313,25.187
1.350,-0.460,-3.270,-58.313,72.188,20.375
1.350,-0.460,-3.270,-58.313,72.188,20.375
1.560,-0.130,-3.600,-41.000,64.750,14.750
1.560,-0.130,-3.600,-14.750,48.500,13.750
1.070,0.710,-4.060,-14.750,48.500,13.750
0.090,1.350,-4.360,0.125,24.625,10.875
-0.100,1.680,-3.960,-13.375,0.000,5.625
-0.100,1.680,-3.960,-13.375,0.000,5.625
0.080,0.840,-3.400,-36.188,-8.375,2.750
0.080,0.840,-3.400,-57.938,-1.812,4.000
-0.010,-0.370,-2.910,-57.938,-1.812,4.000
0.060,-0.920,-1.440,-77.563,14.438,7.937
0.510,-1.030,-1.360,-81.625,43.500,11.938
0.270,-1.690,-1.390,-62.000,66.125,10.875
0.270,-1.690,-1.390,-62.000,66.125,10.875
0.370,-2.030,-1.640,-39.063,57.500,4.437
0.370,-2.030,-1.640,-18.062,22.500,-1.812
-0.090,-0.180,-2.140,-18.062,22.500,-1.812
-0.590,2.100,-1.610,6.000,-20.125,-14.313
-0.300,2.830,-1.170,6.000,-64.875,-25.937
0.090,1.170,-0.900,-21.312,-81.750,-38.813
0.090,1.170,-0.900,-21.312,-81.750,-38.813
0.160,-0.390,-0.060,-45.813,-67.313,-32.750
0.160,-0.390,-0.060,-42.438,-34.688,-15.125
0.080,-2.000,-0.010,-42.438,-34.688,-15.125
-0.220,-2.710,-0.070,-17.875,-1.812,-1.750
-0.800,-1.220,0.250,18.937,10.125,9.250
-0.500,-0.710,1.060,42.125,-4.250,12.313
-0.500,-0.710,1.060,42.125,-4.250,12.313
0.050,-0.050,1.360,48.188,-29.562,0.625
0.050,-0.050,1.360,48.250,-53.188,-11.438
0.230,0.740,1.320,48.250,-53.188,-11.438
0.120,0.380,1.460,50.313,-70.688,-18.750
0.120,0.380,1.460,41.063,-72.438,-26.437
0.150,0.600,1.560,41.063,-72.438,-26.437
0.220,0.710,1.790,14.750,-57.938,-25.937
0.220,0.710,1.790,-11.063,-21.000,-11.500
0.600,0.600,1.660,-11.063,-21.000,-11.500
0.380,0.900,-0.890,-19.562,31.812,5.375
0.380,0.900,-0.890,-19.562,31.812,5.375
0.090,1.230,-0.680,-9.188,76.500,17.250
-0.250,0.770,0.540,10.500,87.250,19.062
-0.300,-0.030,1.320,22.375,72.688,10.688
-0.300,-0.030,1.320,22.375,72.688,10.688
-0.340,-0.080,1.790,34.375,21.125,-11.563
-0.340,-0.080,1.790,34.375,21.125,-11.563
-0.620,0.690,0.720,34.375,21.125,-11.563
-0.560,1.570,0.090,23.875,-5.125,-23.187
-0.560,1.570,0.090,8.438,-14.000,-27.125
-0.270,2.440,-0.900,8.438,-14.000,-27.125
0.210,3.540,-1.250,-0.875,-8.875,-23.000
0.210,3.540,-1.250,-3.625,23.375,-11.063
0.290,3.330,-0.990,-3.625,23.375,-11.063
0.090,2.320,-0.200,-3.625,23.375,-11.063
0.090,2.320,-0.200,1.187,37.625,-7.375
-0.350,-0.140,0.230,1.187,37.625,-7.375
-0.630,-0.200,0.700,38.750,27.562,-4.187
-0.540,0.110,1.620,31.562,9.125,-9.000
-0.540,0.110,1.620,13.688,2.938,-10.313
0.140,0.320,2.530,13.688,2.938,-10.313
0.350,0.260,2.840,-3.250,10.000,1.125
0.350,0.260,2.840,-3.250,10.000,1.125
0.440,0.600,2.680,-21.125,20.500,15.938
0.310,0.510,2.780,-35.375,28.375,27.812
0.020,0.430,2.600,-31.312,36.375,35.000
0.020,0.430,2.600,-31.312,36.375,35.000
0.080,1.040,2.330,-15.938,40.625,34.813

0.080,0.930,2.520,-0.375,35.250,28.875
0.080,0.930,2.520,-0.375,35.250,28.875
-0.080,0.530,2.640,8.875,28.625,20.000
-0.180,0.540,2.660,15.375,26.687,15.438
-0.180,0.540,2.660,19.937,24.437,17.250
0.000,0.960,2.720,19.937,24.437,17.250
0.270,1.310,2.070,28.437,19.687,22.562
0.270,1.310,2.070,28.437,19.687,22.562
-0.020,1.650,2.130,36.750,9.250,27.500
-0.020,1.650,2.130,31.437,-9.625,26.812
-0.410,1.290,2.480,31.437,-9.625,26.812
-0.660,0.790,2.820,22.500,-23.687,20.875
-0.560,0.800,2.590,20.875,-21.187,10.813
-0.560,0.800,2.590,20.875,-21.187,10.813
-0.310,0.210,1.490,20.750,-14.688,8.563
-0.270,0.640,1.210,18.812,-12.688,11.875
-0.270,0.640,1.210,18.812,-12.688,11.875
-0.090,1.540,0.680,15.250,-8.750,9.688
0.310,2.040,0.190,14.313,-0.125,10.063
0.240,2.150,-0.090,11.938,6.687,11.938
0.240,2.150,-0.090,11.938,6.687,11.938
0.300,1.470,0.140,6.750,13.750,12.313
0.300,1.470,0.140,3.688,19.312,13.813
0.480,0.780,0.270,3.688,19.312,13.813
0.410,0.220,0.130,4.687,18.562,17.562
0.310,0.200,0.030,8.188,10.375,24.125
0.310,0.200,0.030,8.188,10.375,24.125
-0.480,1.240,0.640,3.688,-2.813,27.250
-0.660,1.510,0.900,-5.375,-12.125,17.437
-0.660,1.510,0.900,-5.375,-12.125,17.437
-0.720,1.450,0.740,-12.625,-12.938,0.750
-0.720,1.450,0.740,-15.625,-11.000,-13.500
-0.510,1.110,0.360,-15.625,-11.000,-13.500
0.190,1.040,-0.210,-14.375,-5.187,-19.375
0.370,1.160,-0.280,-12.500,1.500,-20.125
0.370,1.160,-0.280,-12.500,1.500,-20.125
0.490,1.200,-0.490,-14.500,10.313,-18.187
0.610,1.040,-0.590,-14.563,18.625,-13.375
0.610,1.040,-0.590,-14.563,18.625,-13.375
0.580,0.640,-0.400,-10.438,21.250,-8.438
0.500,0.320,0.000,-2.063,17.375,-4.312
0.190,-0.090,0.480,5.187,9.125,-1.250
0.190,-0.090,0.480,5.187,9.125,-1.250
-0.190,-0.140,0.760,7.812,-0.187,0.125
-0.460,-0.050,0.750,3.938,-5.375,-0.625
-0.460,-0.050,0.750,3.938,-5.375,-0.625
-0.320,0.260,0.130,-4.062,-4.500,-1.312
-0.130,0.840,-0.320,-9.625,-4.312,-1.187
0.080,1.290,-0.990,-12.625,-8.563,-0.812
0.080,1.290,-0.990,-12.625,-8.563,-0.812
0.180,0.990,-1.180,-13.375,-10.188,-1.250
0.180,0.990,-1.180,-11.063,-6.875,-0.812
0.300,0.700,-1.010,-11.063,-6.875,-0.812
0.380,0.480,-0.820,-3.563,-4.750,1.312
0.400,0.370,-0.370,6.062,-3.813,4.000
0.160,0.330,-0.020,14.250,-4.437,5.125
0.160,0.330,-0.020,14.250,-4.437,5.125
-0.150,0.190,0.240,20.125,-9.375,3.625
-0.150,0.190,0.240,20.125,-9.375,3.625
-0.270,0.230,0.410,20.062,-12.188,0.625
-0.240,0.480,-0.020,16.312,-11.875,-1.000
-0.120,0.860,-0.350,9.813,-13.125,-2.750
-0.120,0.860,-0.350,-0.312,-13.688,-5.437
0.000,1.120,-0.580,-0.312,-13.688,-5.437
0.180,1.260,-0.910,-6.312,-9.125,-6.687
0.180,1.260,-0.910,-6.437,-4.750,-5.812
0.360,1.210,-1.210,-6.437,-4.750,-5.812
0.310,1.040,-0.960,-4.687,-2.250,-4.000
0.280,0.690,-0.560,-2.563,2.250,-2.250
0.280,0.690,-0.560,1.375,5.875,0.187
0.200,0.290,-0.230,1.375,5.875,0.187
0.080,0.110,0.100,5.000,7.812,3.000
0.080,0.110,0.100,5.000,7.812,3.000
0.020,0.310,-0.040,6.437,9.500,6.062
0.020,0.310,-0.040,5.750,7.750,7.125
-0.090,0.580,-0.330,5.750,7.750,7.125
-0.170,0.980,-0.670,2.375,3.375,5.500
-0.080,1.150,-0.700,-1.250,0.375,2.313
-0.080,1.150,-0.700,-1.250,0.375,2.313
0.010,1.200,-0.530,-4.687,-1.312,-1.500
-0.020,1.010,-0.540,-7.812,-3.375,-3.875
-0.020,1.010,-0.540,-7.812,-3.375,-3.875
0.150,0.780,-0.750,-7.125,-3.688,-4.375
0.170,0.750,-0.600,-3.438,-2.813,-3.375
0.210,0.800,-0.380,-1.000,0.125,-0.625
0.210,0.800,-0.380,-1.000,0.125,-0.625
0.230,0.780,-0.440,2.313,1.625,1.500
0.230,0.780,-0.440,5.437,1.812,3.125
0.060,0.550,-0.370,5.437,1.812,3.125
0.040,0.530,-0.120,6.625,2.000,4.062
0.010,0.460,0.000,4.125,0.750,2.563
0.010,0.460,0.000,2.000,2.500,1.500
0.000,0.440,-0.200,2.000,2.500,1.500
0.000,0.440,-0.200,3.250,5.062,2.375
0.050,1.010,-0.860,3.250,5.062,2.375
0.090,1.110,-0.810,3.438,2.625,2.125
0.090,1.110,-0.810,3.438,2.625,2.125
0.060,1.080,-0.570,1.687,-3.125,0.500
0.100,0.900,-0.460,2.063,-6.312,-0.062
0.080,0.860,-0.440,2.813,-4.687,0.437
0.080,0.860,-0.440,2.813,-4.687,0.437
0.110,0.890,-0.450,0.062,1.437,1.187
0.110,0.890,-0.450,-4.500,8.125,1.875
0.080,0.770,-0.380,-4.500,8.125,1.875
-0.010,0.660,-0.400,-6.625,11.625,0.437
0.080,0.650,-0.370,-5.250,13.563,0.125
0.080,0.650,-0.370,-2.500,14.688,0.812
0.000,0.670,-0.430,-2.500,14.688,0.812
0.010,0.760,-0.490,-0.875,14.125,1.000
0.010,0.760,-0.490,-0.875,14.125,1.000
0.060,1.050,-0.440,0.562,11.938,1.000
0.060,1.050,-0.440,-0.750,6.875,-0.875
-0.010,1.000,-0.330,-0.750,6.875,-0.875
0.050,0.920,-0.400,-2.625,1.875,-3.500
0.040,0.740,-0.500,-1.437,-2.250,-4.562
0.040,0.740,-0.500,-1.437,-2.250,-4.562
0.150,0.740,-0.420,0.562,-7.375,-4.875
0.140,0.780,-0.360,2.438,-9.125,-4.000
0.140,0.780,-0.360,2.750,-8.500,-3.125
0.110,0.690,-0.400,2.750,-8.500,-3.125
0.150,0.630,-0.390,3.625,-5.437,-1.000
0.050,0.670,-0.290,3.500,-1.500,2.125
0.050,0.670,-0.290,3.500,-1.500,2.125
0.020,0.660,-0.400,2.563,1.312,3.563
0.020,0.660,-0.400,3.438,2.188,3.875
0.010,0.770,-0.490,3.438,2.188,3.875
-0.010,0.780,-0.370,3.875,0.562,3.625
-0.010,0.780,-0.370,3.875,0.562,3.625
-0.050,0.600,-0.310,2.500,-0.875,2.375
0.000,0.660,-0.400,1.312,-1.187,1.500
0.000,0.660,-0.400,1.312,-1.187,1.500
0.000,0.710,-0.380,1.812,-2.938,1.000
0.010,0.680,-0.340,3.000,-5.187,-0.187
0.010,0.680,-0.340,3.000,-5.187,-0.187
0.250,0.730,-0.270,4.687,-4.000,-0.937
0.130,0.740,-0.320,6.500,-2.438,0.000
0.080,0.790,-0.210,5.437,-1.875,0.250
0.080,0.790,-0.210,5.437,-1.875,0.250
0.100,0.700,-0.280,1.812,1.187,-0.062
0.100,0.700,-0.280,-1.312,5.187,1.125
0.030,0.720,-0.350,-1.312,5.187,1.125
-0.020,0.790,-0.440,-2.375,5.812,2.000
-0.060,0.850,-0.500,-2.750,4.750,1.312
-0.060,0.850,-0.500,-2.750,4.750,1.312
0.100,0.810,-0.410,-2.438,2.938,-0.625
0.100,0.790,-0.320,-1.375,0.812,-1.437
0.100,0.790,-0.320,-1.375,0.812,-1.437
0.090,0.750,-0.290,0.687,-1.750,-2.125
0.090,0.750,-0.290,0.375,-2.500,-2.375
0.090,0.840,-0.300,0.375,-2.500,-2.375
0.300,0.920,-0.430,0.500,-1.000,-1.812
0.250,0.920,-0.410,3.188,-0.187,-0.312
0.250,0.920,-0.410,3.188,-0.187,-0.312
0.100,0.770,-0.320,4.187,-1.625,1.000
0.060,0.670,-0.280,1.000,-1.937,1.500
0.060,0.670,-0.280,1.000,-1.937,1.500
0.170,0.760,-0.420,-1.437,-0.625,2.000
0.170,0.810,-0.490,-0.812,0.062,2.688
0.170,0.810,-0.490,0.875,0.750,4.000
0.040,0.830,-0.470,0.875,0.750,4.000
0.030,0.720,-0.560,2.563,2.063,4.437
0.030,0.720,-0.560,2.563,2.063,4.437
-0.070,0.700,-0.230,2.750,2.125,4.812
-0.070,0.700,-0.230,2.188,0.375,3.875
-0.020,0.750,-0.240,2.188,0.375,3.875
-0.040,0.830,-0.360,2.313,-0.812,2.813
-0.030,0.840,-0.270,1.062,-2.188,1.937
-0.030,0.840,-0.270,-1.062,-2.813,0.687
-0.020,0.820,-0.060,-1.062,-2.813,0.687
0.000,0.820,-0.140,-2.375,-3.250,-1.000
0.000,0.820,-0.140,-3.813,-2.563,-2.625
0.000,0.750,-0.230,-3.813,-2.563,-2.625
0.120,0.710,-0.430,-3.375,-0.125,-3.313
0.160,0.590,-0.290,-1.500,1.812,-3.000
0.160,0.590,-0.290,0.625,2.750,-2.563
0.150,0.560,-0.230,0.625,2.750,-2.563
0.110,0.580,-0.340,3.313,3.625,-0.625
0.110,0.580,-0.340,5.250,4.812,1.125
0.030,0.680,-0.320,5.250,4.812,1.125
0.050,0.710,-0.310,6.250,5.312,2.250
0.010,0.760,-0.140,6.625,3.750,2.375
0.010,0.760,-0.140,4.687,-1.562,0.937
0.000,0.720,0.000,4.687,-1.562,0.937
0.030,0.730,-0.260,2.188,-5.937,-0.562
0.030,0.730,-0.260,0.125,-6.562,-0.687
0.040,0.850,-0.450,0.125,-6.562,-0.687
0.040,1.000,-0.570,-1.250,-6.437,-0.625
0.070,1.090,-0.530,-3.125,-5.250,-0.500
0.070,1.090,-0.530,-3.125,-5.250,-0.500
0.090,0.840,-0.440,-3.563,-2.625,-0.312
0.100,0.700,-0.460,-3.188,0.062,-0.312
0.100,0.700,-0.460,-3.188,0.062,-0.312
0.130,0.670,-0.370,-0.437,4.125,0.875
0.100,0.730,-0.260,1.437,5.437,2.125
0.060,0.720,-0.320,3.063,6.500,2.500
0.060,0.720,-0.320,3.063,6.500,2.500
-0.020,0.840,-0.260,4.312,7.562,2.375
-0.020,0.840,-0.260,4.312,7.562,2.375
-0.060,0.880,-0.140,1.812,5.000,1.187
0.000,0.810,-0.170,-3.375,0.500,-1.250
0.000,0.810,-0.170,-4.375,-2.563,-2.250
0.050,0.720,-0.330,-4.375,-2.563,-2.250
0.110,0.830,-0.360,-3.313,-4.875,-1.812
0.110,0.830,-0.360,-2.750,-3.625,-0.937
0.120,0.890,-0.350,-2.750,-3.625,-0.937
0.140,0.730,-0.480,-2.875,-1.250,0.062
0.140,0.730,-0.480,0.437,0.937,1.750
0.100,0.710,-0.430,0.437,0.937,1.750
0.100,0.740,-0.400,2.813,1.562,3.188
0.000,0.760,-0.310,3.063,1.000,3.563
0.000,0.760,-0.310,3.063,1.000,3.563
-0.010,0.680,-0.220,2.063,0.500,3.438
0.020,0.730,-0.190,1.125,-0.500,2.813
0.020,0.730,-0.190,1.125,-0.500,2.813
0.030,0.720,-0.250,-0.437,-2.313,1.500
0.030,0.720,-0.250,-0.875,-4.562,0.375
0.040,0.740,-0.240,-0.875,-4.562,0.375
0.010,0.740,-0.140,0.187,-7.000,-0.562
0.030,0.720,-0.220,1.250,-8.500,-0.937
0.030,0.720,-0.220,1.250,-8.500,-0.937
0.040,0.640,-0.250,1.187,-6.500,-0.687
0.040,0.640,-0.250,1.500,-2.750,0.312
0.040,0.640,-0.380,1.500,-2.750,0.312
0.050,0.780,-0.340,2.375,-0.062,1.375
0.030,0.770,-0.360,1.875,2.563,1.875
0.030,0.770,-0.360,1.437,3.563,2.063
0.010,0.810,-0.360,1.437,3.563,2.063
0.010,0.810,-0.360,0.250,3.938,1.562
0.020,0.930,-0.310,0.250,3.938,1.562
-0.020,0.920,-0.280,-2.000,4.062,0.812
-0.020,0.920,-0.280,-4.312,3.063,-0.125
0.000,0.780,-0.320,-4.312,3.063,-0.125
0.020,0.770,-0.300,-5.375,2.125,-1.062
0.030,0.620,-0.190,-3.375,-0.250,-1.687
0.030,0.620,-0.190,-3.375,-0.250,-1.687
0.090,0.670,-0.180,-0.687,-2.625,-2.375
0.090,0.670,-0.180,1.000,-3.188,-2.063
0.080,0.660,-0.200,1.000,-3.188,-2.063
0.070,0.620,-0.270,2.438,-3.000,-1.812
0.050,0.690,-0.140,4.687,-2.188,-1.250
0.050,0.690,-0.140,4.687,-2.188,-1.250
0.070,0.740,-0.110,4.562,-2.125,-0.875
0.120,0.770,-0.210,2.813,-2.438,-0.812
0.120,0.770,-0.210,2.813,-2.438,-0.812
0.070,0.840,-0.410,0.062,-1.500,-0.250
-0.010,0.860,-0.320,-2.438,-0.187,0.812
-0.010,0.860,-0.320,-3.125,0.062,0.437
0.050,0.760,-0.320,-3.125,0.062,0.437
0.090,0.710,-0.240,-1.625,1.000,0.500
0.090,0.710,-0.240,-1.625,1.000,0.500

-0.360,2.390,1.780,5.937,-4.437,18.687
-0.360,2.390,1.780,5.062,-2.938,26.937
-0.480,2.580,2.110,5.062,-2.938,26.937
0.050,2.730,3.420,-7.000,-3.813,32.625
0.000,2.440,3.510,-21.437,-0.187,34.563
0.000,2.440,3.510,-30.812,8.250,35.375
0.020,2.430,3.330,-30.812,8.250,35.375
0.000,2.650,3.080,-41.875,12.688,37.625
0.000,2.650,3.080,-41.875,12.688,37.625
-0.320,1.890,3.040,-47.125,6.125,39.813
-0.390,1.720,3.830,-41.750,-15.188,38.125
-0.390,1.720,3.830,-36.625,-40.500,35.875
-0.430,1.210,5.010,-36.625,-40.500,35.875
-0.370,0.650,6.440,-35.188,-55.625,36.625
-0.370,0.650,6.440,-35.188,-55.625,36.625
-0.240,0.310,6.330,-31.625,-60.563,38.500
-0.400,0.460,6.510,-24.000,-57.063,40.375
-0.570,0.250,6.120,-17.687,-54.813,38.500
-0.570,0.250,6.120,-14.500,-57.563,32.500
-0.280,0.430,6.110,-14.500,-57.563,32.500
-0.120,0.410,6.120,-14.438,-55.375,22.875
-0.120,0.410,6.120,-14.438,-55.375,22.875
0.090,0.440,5.650,-24.937,-46.375,11.375
0.420,0.630,4.860,-36.438,-30.375,1.500
0.560,0.950,4.740,-38.750,-10.813,-2.625
0.560,0.950,4.740,-35.500,8.813,-1.937
0.350,0.410,5.120,-35.500,8.813,-1.937
-0.010,-0.450,5.350,-35.313,22.062,-3.375
-0.010,-0.450,5.350,-35.313,22.062,-3.375
-0.020,-1.470,5.130,-41.000,26.062,-9.125
-0.060,-2.900,4.110,-39.063,21.312,-16.250
-0.060,-2.900,4.110,-39.063,21.312,-16.250
0.130,-3.020,3.320,-26.625,6.687,-22.062
0.150,-2.640,2.770,-2.000,-7.437,-26.250
0.150,-2.640,2.770,20.875,-10.313,-24.937
0.470,-1.760,1.630,20.875,-10.313,-24.937
-0.200,0.390,-0.390,31.250,1.500,-16.750
-0.200,0.390,-0.390,25.312,25.437,-6.687
0.220,1.410,-2.110,25.312,25.437,-6.687
0.400,2.720,-2.920,21.750,50.750,2.563
0.370,2.530,-2.060,11.438,58.375,9.938
0.370,2.530,-2.060,-4.375,42.688,5.375
0.010,0.980,-1.190,-4.375,42.688,5.375
-0.500,-1.430,-0.460,-17.125,6.000,-18.500
-0.500,-1.430,-0.460,-17.125,6.000,-18.500
-0.490,-3.220,0.250,-28.312,-27.125,-51.875
0.110,-3.990,-1.350,-29.937,-41.125,-74.438
0.020,-3.040,-2.300,-11.125,-40.188,-79.625
0.020,-3.040,-2.300,-11.125,-40.188,-79.625
0.060,-1.460,-2.970,15.250,-35.563,-73.563
0.060,-1.460,-2.970,30.437,-17.937,-57.938
0.300,0.350,-3.750,30.437,-17.937,-57.938
-0.270,3.370,-5.730,41.438,14.688,-34.688
-0.380,3.180,-5.330,62.375,40.875,-17.875
-0.230,1.720,-5.500,73.500,49.625,-13.500
-0.230,1.720,-5.500,73.500,49.625,-13.500
-0.010,0.530,-5.480,68.500,37.500,-14.625
-0.010,0.530,-5.480,51.125,7.437,-23.062
-0.300,-0.790,-3.900,51.125,7.437,-23.062
0.830,-0.950,-4.960,28.000,-21.312,-44.688
1.090,-0.440,-5.560,24.937,-25.125,-39.750
1.090,-0.440,-5.560,30.375,-35.375,-29.625
1.480,0.460,-5.110,30.375,-35.375,-29.625
1.380,2.090,-6.120,54.188,-41.125,-15.125
1.380,2.090,-6.120,54.188,-41.125,-15.125
0.680,2.580,-5.060,92.250,-49.063,-5.500
-0.420,2.500,-3.920,115.313,-60.500,-3.625
-0.800,1.690,-4.310,118.000,-51.688,-9.000
-0.800,1.690,-4.310,104.688,-36.000,-20.687
-1.110,1.130,-4.480,104.688,-36.000,-20.687
-0.560,0.890,-4.460,78.125,-31.500,-33.438
-0.560,0.890,-4.460,78.125,-31.500,-33.438
-0.040,1.060,-4.100,47.813,-33.438,-29.062
-0.140,1.280,-2.620,23.562,-46.563,-26.750
-0.380,1.160,-2.280,11.375,-56.688,-29.250
-0.510,0.760,-2.190,6.312,-53.063,-30.562
-0.510,0.760,-2.190,6.312,-53.063,-30.562
-0.410,0.170,-2.010,6.312,-38.938,-26.562
-0.410,0.170,-2.010,11.625,-22.750,-20.250
-0.390,-0.580,-2.190,11.625,-22.750,-20.250
-0.300,0.030,-2.200,23.187,-7.750,-9.250
-1.020,0.800,-1.480,31.562,-2.375,3.375
-1.020,0.800,-1.480,27.062,-1.937,6.625
-1.240,1.150,-1.180,27.062,-1.937,6.625
-0.600,0.460,-1.090,13.688,5.125,4.312
-0.600,0.460,-1.090,13.688,5.125,4.312
-0.430,0.550,-1.180,-0.562,15.313,-2.813
0.130,0.720,-1.420,-7.187,24.375,-10.500
0.330,0.670,-1.700,-3.875,24.562,-16.312
0.030,0.470,-2.050,2.750,19.687,-19.312
0.030,0.470,-2.050,2.750,19.687,-19.312
0.090,0.440,-2.380,7.250,15.438,-15.563
0.090,0.440,-2.380,7.250,15.438,-15.563
0.150,0.850,-2.650,9.938,13.250,-6.187
0.350,1.450,-2.760,13.000,9.938,2.625
0.350,1.450,-2.760,17.250,2.188,8.563
0.100,2.000,-2.450,17.250,2.188,8.563
0.150,1.710,-2.500,19.812,-5.625,8.250
-0.060,1.530,-2.470,17.125,-10.563,5.625
-0.060,1.530,-2.470,17.125,-10.563,5.625
0.030,0.730,-1.910,11.750,-16.500,5.625
0.030,0.730,-1.910,7.625,-22.062,5.937
-0.260,0.520,-1.630,7.625,-22.062,5.937
-0.250,0.580,-1.750,3.688,-24.125,0.625
-0.080,0.830,-2.110,-0.312,-21.625,-3.438
-0.080,0.830,-2.110,-0.312,-21.625,-3.438
-0.420,1.440,-2.480,-5.000,-11.250,1.250
-0.420,1.440,-2.480,-5.000,-11.250,1.250
-0.190,1.500,-2.480,-5.000,-11.250,1.250
-0.090,1.030,-2.180,-8.500,-5.437,9.375
0.050,0.280,-1.970,-13.563,0.375,18.625
0.380,0.460,-1.950,-11.063,-2.188,17.687
0.380,0.460,-1.950,-11.063,-2.188,17.687
0.260,0.690,-1.910,-8.563,-6.187,10.938
0.260,0.690,-1.910,-7.375,-8.563,3.813
0.050,0.830,-2.450,-7.375,-8.563,3.813
0.300,1.050,-2.710,-5.187,-12.125,2.313
-0.080,1.340,-2.620,-2.813,-9.313,2.063
-0.040,0.970,-2.750,-5.687,1.000,2.625
-0.040,0.970,-2.750,-5.687,1.000,2.625
0.090,0.630,-2.820,-10.125,17.062,10.000
0.090,0.630,-2.820,-16.562,39.750,21.812
-0.080,0.390,-2.520,-16.562,39.750,21.812
-0.470,0.250,-2.880,-26.750,62.250,31.437
-0.170,1.040,-2.930,-38.875,69.813,31.875
-0.170,1.040,-2.930,-54.313,67.625,15.875
-0.360,1.490,-2.370,-54.313,67.625,15.875
0.080,1.460,-3.510,-65.000,59.625,1.562
0.080,1.460,-3.510,-65.000,59.625,1.562
0.730,1.210,-3.810,-59.188,44.750,-3.063
0.730,1.210,-3.810,-59.188,44.750,-3.063
1.220,0.700,-4.040,-46.938,34.500,-0.500
1.230,0.200,-3.660,-28.125,38.000,14.625
0.660,-1.430,-2.290,-10.688,58.625,37.875
0.660,-1.430,-2.290,-10.688,58.625,37.875
0.200,-1.830,-2.500,3.313,77.563,55.063
0.200,-1.830,-2.500,12.625,77.500,60.063
-0.230,-1.800,-2.180,12.625,77.500,60.063
-0.270,-0.810,-2.140,18.812,64.438,53.938
-0.010,0.700,-2.830,12.813,38.500,40.063
-0.010,0.700,-2.830,-2.125,5.250,24.562
0.470,1.170,-2.800,-2.125,5.250,24.562
0.810,1.860,-2.890,0.500,-19.062,22.000
0.810,1.860,-2.890,0.500,-19.062,22.000
0.770,1.890,-3.350,11.500,-37.125,25.937
0.140,1.220,-2.820,17.000,-44.688,25.312
0.140,1.220,-2.820,22.750,-33.750,24.000
-0.230,0.450,-2.180,22.750,-33.750,24.000
-0.520,-0.180,-1.540,24.562,-11.688,24.625
-0.520,-0.180,-1.540,28.250,4.562,20.750
-0.810,-0.930,-1.020,28.250,4.562,20.750
-0.990,-0.880,-1.130,30.687,8.500,11.875
-0.990,-0.880,-1.130,30.687,8.500,11.875
-1.140,-0.470,-1.010,28.125,0.375,2.938
-1.050,0.120,-0.530,14.375,-12.250,-8.875
-0.810,-0.150,0.030,-8.813,-19.687,-21.750
-0.810,-0.150,0.030,-8.813,-19.687,-21.750
0.260,-0.930,-0.650,-28.125,-21.562,-27.187
0.260,-0.930,-0.650,-36.875,-16.375,-20.500
0.930,-0.870,-1.450,-36.875,-16.375,-20.500
1.030,-0.780,-2.520,-32.438,0.187,-4.437
0.730,0.850,-2.490,-28.062,20.500,11.688
-0.200,1.130,-1.530,-23.750,37.938,21.937
-0.200,1.130,-1.530,-23.750,37.938,21.937
-0.590,0.580,-0.820,-12.500,39.750,20.250
-0.590,0.580,-0.820,-12.500,39.750,20.250
-1.090,0.020,0.160,2.250,19.312,4.750
-0.920,-1.410,1.970,15.000,-0.562,-11.438
-0.920,-1.410,1.970,24.312,-6.812,-16.062
-0.360,-1.780,2.400,24.312,-6.812,-16.062
-0.230,-1.540,2.340,22.937,-0.937,-12.063
-0.230,-1.540,2.340,11.063,9.250,-5.187
0.100,-0.660,2.090,11.063,9.250,-5.187
0.580,0.730,1.270,-7.375,18.375,-2.188
0.580,0.730,1.270,-18.750,38.438,-8.875
0.440,1.220,0.530,-18.750,38.438,-8.875
0.180,1.610,0.290,-23.250,49.625,-20.250
0.060,1.770,1.060,-22.812,46.375,-31.000
0.060,1.770,1.060,-22.812,46.375,-31.000
-0.080,1.480,1.160,-8.625,37.813,-37.063
-0.080,1.480,1.160,20.562,12.250,-35.000
0.000,1.730,1.520,20.562,12.250,-35.000
-0.060,1.440,2.830,37.563,-20.312,-27.750
0.030,0.750,3.920,45.875,-31.500,-21.062
0.030,0.750,3.920,45.875,-31.500,-21.062
-0.230,0.180,4.090,46.188,-20.437,-16.937
0.180,0.770,3.550,38.313,-0.062,-16.375
0.180,0.770,3.550,38.313,-0.062,-16.375
0.020,1.450,3.290,23.937,16.125,-15.750
0.000,2.060,2.040,0.312,29.062,-17.500
0.000,2.060,2.040,0.312,29.062,-17.500
0.030,1.960,1.940,-17.562,32.813,-25.062
-0.110,1.470,1.760,-21.000,31.937,-30.625
-0.110,1.470,1.760,-21.000,31.937,-30.625
-0.130,1.160,1.280,-15.938,31.625,-26.062
-0.130,1.160,1.280,-15.938,31.625,-26.062
0.090,1.070,1.290,-5.875,28.125,-11.625
-0.050,1.290,1.050,6.687,27.187,8.563
-0.220,1.620,1.340,14.438,21.812,24.937
-0.330,1.720,1.450,16.562,19.437,35.750
-0.330,1.720,1.450,16.562,19.437,35.750
-0.590,1.920,0.720,19.812,18.625,42.563
-0.590,1.920,0.720,19.687,11.000,42.375
-0.430,2.220,0.680,19.687,11.000,42.375
-0.620,2.480,0.960,13.000,-0.312,36.563
-0.580,2.590,0.870,6.375,-3.750,26.187
-0.580,2.590,0.870,2.313,2.375,17.187
-0.100,2.200,0.920,2.313,2.375,17.187
0.230,1.890,0.840,1.812,14.438,14.375
0.230,1.890,0.840,1.812,14.438,14.375
0.320,1.870,1.140,5.812,13.625,16.500
0.320,1.870,1.140,5.812,13.625,16.500
0.340,1.830,1.770,9.813,9.625,19.187
-0.150,1.250,2.280,8.000,6.062,20.750
-0.150,1.250,2.280,7.250,0.312,18.875
-0.300,1.600,2.480,7.250,0.312,18.875
-0.110,1.610,2.830,6.000,1.625,12.188
-0.110,1.610,2.830,6.000,1.625,12.188
-0.170,1.410,2.560,7.812,9.188,3.813
-0.170,1.410,2.560,7.812,9.188,3.813
-0.150,1.690,1.780,-0.312,6.687,-4.250
-0.130,1.430,1.790,-12.063,1.125,-10.375
-0.130,1.430,1.790,-21.750,-3.813,-13.563
-0.030,1.250,1.490,-21.750,-3.813,-13.563
0.270,-0.870,0.870,-26.750,-13.500,-10.938
0.270,-0.870,0.870,-26.750,-13.500,-10.938
0.180,-0.750,0.600,-22.562,-27.437,2.438
-0.070,0.720,0.900,-10.875,-36.500,14.875
-0.070,0.720,0.900,-4.250,-33.125,13.438
-0.190,2.040,1.370,-4.250,-33.125,13.438
-0.100,2.070,1.300,-10.875,-21.375,-0.062
-0.100,2.070,1.300,-22.375,-8.625,-14.000
0.160,1.940,1.140,-22.375,-8.625,-14.000
0.240,1.460,0.990,-29.812,2.438,-22.625
0.240,1.460,0.990,-31.312,15.375,-24.000
0.360,0.960,0.850,-31.312,15.375,-24.000
0.260,0.080,0.420,-31.750,24.562,-19.000
0.240,-0.070,0.360,-29.562,25.187,-10.938
0.240,-0.070,0.360,-29.562,25.187,-10.938
0.060,-0.120,0.340,-24.750,20.500,-2.438
0.060,-0.120,0.340,-24.750,20.500,-2.438
-0.130,-0.010,0.210,-20.562,13.500,5.687
0.100,0.410,0.090,-22.375,5.125,11.438
0.100,0.410,0.090,-22.375,5.125,11.438
0.240,0.550,-0.140,-21.562,-0.875,14.625
0.310,0.760,-0.250,-17.562,-5.437,18.000
0.310,0.760,-0.250,-17.562,-5.437,18.000
0.180,0.670,-0.170,-7.875,-8.750,19.375
0.180,0.670,-0.170,4.250,-9.688,18.875
0.000,0.910,-0.210,4.250,-9.688,18.875

-0.540,1.850,3.200,-0.562,-6.625,5.125
-0.540,1.850,3.200,-0.562,-6.625,5.125
-0.450,1.860,3.830,-10.000,-3.438,2.375
-0.490,1.880,4.070,-19.875,-0.750,-2.938
-0.450,2.050,4.370,-26.625,-2.125,-8.750
-0.450,2.050,4.370,-28.187,-11.000,-12.375
-0.270,2.070,5.050,-28.187,-11.000,-12.375
-0.130,2.040,5.910,-26.500,-30.250,-14.313
-0.130,2.040,5.910,-26.500,-30.250,-14.313
-0.140,1.750,6.870,-28.437,-53.125,-13.813
-0.140,1.750,6.870,-29.187,-72.313,-12.875
-0.130,1.350,7.380,-29.187,-72.313,-12.875
0.060,0.500,7.670,-29.437,-85.063,-10.188
-0.070,0.400,7.320,-31.062,-83.875,-4.812
-0.070,0.400,7.320,-31.062,-83.875,-4.812
-0.060,0.720,6.830,-32.875,-67.750,2.313
-0.060,0.720,6.830,-31.687,-47.750,11.750
0.240,1.390,6.170,-31.687,-47.750,11.750
0.380,2.240,5.880,-28.312,-20.875,24.562
0.290,1.700,6.000,-30.250,2.438,38.188
0.290,1.700,6.000,-30.250,2.438,38.188
0.410,1.090,6.150,-34.125,11.250,42.688
0.410,1.090,6.150,-28.250,3.313,36.188
0.060,0.440,6.590,-28.250,3.313,36.188
-0.570,-0.240,7.120,-19.625,-7.625,25.062
-0.570,-0.240,7.120,-19.937,-5.000,16.500
-0.640,-0.890,6.120,-19.937,-5.000,16.500
-0.470,-0.580,5.070,-20.562,6.750,12.688
-0.130,1.300,1.480,-22.750,14.625,7.250
-0.130,1.300,1.480,-23.375,14.125,-1.000
-0.100,2.410,0.250,-23.375,14.125,-1.000
-0.340,3.230,-0.380,-24.687,4.687,-8.063
-0.340,3.230,-0.380,-22.062,-0.750,-9.500
-0.100,3.020,-0.390,-22.062,-0.750,-9.500
0.040,1.180,0.040,-14.000,5.875,-4.187
0.130,-0.300,0.350,-6.000,15.500,1.375
0.130,-0.300,0.350,-6.000,15.500,1.375
0.290,-1.640,0.320,1.875,7.000,-3.125
0.290,-1.640,0.320,1.875,7.000,-3.125
0.180,-2.660,-0.110,5.687,-16.562,-21.687
-0.450,-2.380,-1.940,8.188,-38.375,-46.438
-0.590,-1.310,-2.080,-0.187,-54.625,-65.375
-0.720,-0.710,-2.930,-14.438,-52.875,-76.063
-0.720,-0.710,-2.930,-14.438,-52.875,-76.063
-0.650,-0.210,-4.870,-23.000,-33.063,-76.625
-0.650,-0.210,-4.870,-23.000,-33.063,-76.625
0.610,1.700,-7.790,-20.250,-8.438,-56.688
0.540,2.370,-7.100,-0.187,3.438,-28.187
0.050,2.390,-6.110,17.625,10.250,-1.375
0.050,2.390,-6.110,17.625,10.250,-1.375
-0.340,2.210,-5.060,26.062,19.812,17.625
-1.260,-0.410,-2.680,20.750,23.687,4.500
-1.260,-0.410,-2.680,20.750,23.687,4.500
0.180,-1.750,-3.970,13.125,24.375,-17.812
0.550,-2.210,-4.880,14.000,27.187,-20.250
0.550,-2.210,-4.880,14.000,27.187,-20.250
1.100,-1.240,-5.850,11.813,1.250,-36.000
1.930,-0.440,-6.170,26.812,-24.625,-41.813
1.930,-0.440,-6.170,57.938,-28.812,-33.938
0.780,0.430,-7.040,57.938,-28.812,-33.938
0.530,1.550,-6.900,86.750,-22.375,-8.563
0.530,1.550,-6.900,97.313,-17.562,14.875
-0.130,2.610,-6.210,97.313,-17.562,14.875
-0.270,2.560,-5.760,97.188,-16.187,22.687
-0.420,1.710,-4.880,89.313,-15.188,27.562
-0.420,1.710,-4.880,89.313,-15.188,27.562
-0.110,0.660,-4.170,62.813,-17.312,26.625
-0.110,0.660,-4.170,62.813,-17.312,26.625
0.660,0.080,-3.680,39.500,-24.375,18.187
0.640,0.160,-3.110,34.000,-32.125,16.812
0.380,0.410,-2.710,32.125,-39.625,18.812
0.380,0.410,-2.710,32.125,-39.625,18.812
0.080,0.600,-2.830,34.375,-39.438,20.437
0.080,0.600,-2.830,41.688,-33.313,17.125
-0.510,1.120,-2.830,41.688,-33.313,17.125
-0.620,1.430,-2.550,43.188,-27.125,9.063
-0.620,1.430,-2.550,43.188,-27.125,9.063
-0.400,1.260,-2.450,37.000,-22.812,4.812
-0.590,1.150,-1.910,25.625,-14.500,1.562
-0.590,1.150,-1.910,25.625,-14.500,1.562
-0.100,0.570,-1.260,9.500,-2.188,-5.875
0.000,0.200,-1.480,-4.562,6.312,-16.187
0.000,0.200,-1.480,-4.562,6.312,-16.187
-0.120,0.140,-1.660,-11.313,8.563,-24.312
-0.120,0.140,-1.660,-12.875,7.750,-28.562
0.360,0.260,-1.580,-12.875,7.750,-28.562
0.330,0.640,-1.660,-14.063,5.375,-28.375
0.620,1.040,-1.750,-11.688,5.000,-24.937
0.620,1.040,-1.750,-11.688,5.000,-24.937
0.730,1.060,-2.090,-5.062,8.125,-14.000
0.730,1.060,-2.090,6.687,8.000,-1.750
0.150,1.390,-1.450,6.687,8.000,-1.750
-0.080,1.130,-1.530,12.625,4.937,4.687
-0.220,0.890,-1.490,13.125,3.500,5.062
-0.220,0.890,-1.490,11.750,-1.625,2.375
-0.270,0.850,-1.330,11.750,-1.625,2.375
-0.290,1.180,-1.410,8.500,-8.813,-3.500
-0.290,1.180,-1.410,8.500,-8.813,-3.500
-0.170,1.070,-1.350,1.250,-13.188,-10.000
-0.170,1.070,-1.350,-6.062,-12.438,-14.125
-0.170,0.870,-1.370,-6.062,-12.438,-14.125
-0.090,0.830,-1.440,-11.375,-6.187,-12.250
0.250,0.810,-1.630,-12.500,1.187,-4.250
0.250,0.810,-1.630,-12.500,1.187,-4.250
0.180,0.490,-1.670,-8.500,7.000,6.000
-0.050,0.300,-1.470,-2.500,8.938,13.813
-0.050,0.300,-1.470,-2.500,8.938,13.813
-0.240,-0.090,-1.310,2.938,5.375,14.938
-0.310,-0.350,-1.290,4.875,0.375,13.250
-0.310,-0.350,-1.290,8.125,-4.312,11.313
-0.260,-0.140,-1.000,8.125,-4.312,11.313
-0.310,0.140,-0.950,8.375,-8.500,10.438
-0.310,0.140,-0.950,8.375,-8.500,10.438
-0.190,0.610,-1.190,4.000,-7.500,10.438
-0.030,1.360,-1.250,0.250,-1.437,11.438
-0.030,1.360,-1.250,0.250,-1.437,11.438
0.010,1.600,-1.690,-5.750,8.813,12.125
-0.060,1.780,-1.930,-12.375,15.813,14.063
-0.060,1.780,-1.930,-12.375,15.813,14.063
-0.290,1.500,-2.020,-16.375,18.875,14.625
-0.390,0.960,-1.900,-21.750,20.500,11.688
-0.390,0.960,-1.900,-21.750,20.500,11.688
-0.370,0.580,-1.430,-30.187,20.875,7.875
-0.580,0.280,-0.910,-37.313,25.812,2.750
-0.380,-0.090,-1.130,-44.063,39.875,-4.562
-0.380,-0.090,-1.130,-44.063,39.875,-4.562
-0.250,-0.130,-1.150,-53.125,56.813,-7.875
-0.250,-0.130,-1.150,-53.125,56.813,-7.875
0.280,-0.020,-1.280,-64.500,70.125,-2.875
0.740,0.570,-1.660,-70.125,81.375,9.813
0.740,0.570,-1.660,-70.125,81.375,9.813
1.370,1.820,-2.180,-66.688,87.000,27.312
1.450,2.230,-2.610,-54.750,86.375,43.438
1.450,2.230,-2.610,-54.750,86.375,43.438
0.880,2.250,-2.730,-38.125,78.188,50.313
0.880,2.250,-2.730,-23.000,64.250,46.438
0.590,1.880,-2.490,-23.000,64.250,46.438
0.290,0.670,-2.160,-14.563,48.438,33.750
0.250,0.640,-2.140,-14.750,37.625,22.750
0.250,0.640,-2.140,-16.687,28.437,16.062
0.370,0.520,-1.710,-16.687,28.437,16.062
0.370,0.520,-1.710,-17.625,18.750,6.312
0.610,0.420,-1.430,-17.625,18.750,6.312
1.070,0.850,-2.240,-16.687,11.938,-7.250
1.070,0.850,-2.240,-13.688,7.187,-15.875
1.180,1.230,-2.840,-13.688,7.187,-15.875
0.990,1.780,-3.220,-4.812,3.625,-12.500
0.570,1.730,-3.860,1.437,0.187,-2.938
0.570,1.730,-3.860,6.250,-8.063,2.375
-0.190,0.250,-2.770,6.250,-8.063,2.375
-0.160,-0.300,-1.790,4.812,-21.437,4.250
-0.160,-0.300,-1.790,-1.500,-34.563,5.562
-0.330,-0.720,-0.860,-1.500,-34.563,5.562
-0.290,-0.470,-0.170,3.500,-43.063,0.875
-0.490,-0.240,-0.340,11.500,-45.188,-6.375
-0.490,-0.240,-0.340,16.062,-40.438,-12.375
-0.260,-0.070,-0.560,16.062,-40.438,-12.375
-0.120,0.230,-0.730,17.500,-30.375,-17.812
-0.120,0.230,-0.730,16.000,-15.000,-24.375
0.080,1.350,-2.160,16.000,-15.000,-24.375
0.290,1.890,-2.410,6.750,5.187,-28.375
0.300,2.240,-3.010,-9.125,24.625,-26.562
0.300,2.240,-3.010,-9.125,24.625,-26.562
-0.040,2.270,-2.760,-15.000,30.187,-19.000
0.280,1.040,-1.200,-16.437,15.250,-9.500
0.280,1.040,-1.200,-15.313,-8.250,1.875
0.220,-0.500,-0.580,-15.313,-8.250,1.875
-0.020,-1.450,0.130,2.313,-33.625,5.812
0.180,-1.960,0.470,29.812,-48.688,7.312
0.180,-1.960,0.470,29.812,-48.688,7.312
-0.120,-1.560,-0.280,58.250,-51.250,12.563
-0.440,-0.330,-0.940,81.563,-41.125,18.875
-0.440,-0.330,-0.940,81.563,-41.125,18.875
-0.670,1.090,-0.930,99.250,-27.750,21.625
-0.850,2.050,-0.730,85.563,-11.813,22.187
-0.850,2.050,-0.730,40.188,-1.875,11.875
-0.440,1.330,0.230,40.188,-1.875,11.875
-0.010,0.180,0.690,-9.500,-2.375,-4.062
-0.010,0.180,0.690,-9.500,-2.375,-4.062
0.240,-0.430,0.430,-40.563,-4.187,-18.250
0.310,-0.480,0.260,-43.188,-0.875,-23.062
0.410,-0.360,-0.560,-30.500,5.562,-16.062
0.580,-0.120,-1.150,-12.813,10.500,-5.312
0.580,-0.120,-1.150,-12.813,10.500,-5.312
0.530,0.090,-0.970,12.500,6.562,1.875
0.530,0.090,-0.970,35.000,-2.000,4.625
0.090,0.620,0.020,35.000,-2.000,4.625
0.270,1.000,0.570,48.063,-0.375,5.937
0.500,1.160,1.740,43.438,4.937,1.937
0.500,1.160,1.740,43.438,4.937,1.937
0.450,1.080,2.210,20.250,14.875,-2.125
0.450,1.080,2.210,-3.375,27.812,-0.937
-0.220,0.100,2.000,-3.375,27.812,-0.937
-0.420,0.050,1.440,-18.187,42.063,1.062
-0.420,0.050,1.440,-18.187,42.063,1.062
-0.350,0.120,1.220,-27.875,53.688,3.750
-0.280,0.330,0.780,-27.437,59.000,7.062
