aX,aY,aZ,gX,gY,gZ
-8.850,9.310,-12.490,25.375,-22.375,72.375
-8.850,9.310,-12.490,26.312,-15.563,63.500
-8.400,10.360,-13.780,26.312,-15.563,63.500
-7.860,10.190,-14.460,26.875,-15.500,45.438
-7.590,8.370,-15.850,32.688,-21.125,31.875
-7.590,8.370,-15.850,54.375,-38.625,33.938
-5.270,4.470,-17.010,54.375,-38.625,33.938
-3.370,7.380,-16.360,57.813,-66.688,52.000
-1.030,11.930,-15.310,50.563,-80.375,60.500
-0.080,15.040,-14.520,44.813,-82.813,46.750
-0.080,15.040,-14.520,44.813,-82.813,46.750
-4.370,14.620,-16.840,25.500,-69.188,26.062
-6.180,11.660,-18.580,2.438,-48.250,7.062
-6.180,11.660,-18.580,-1.500,-46.813,-1.250
-6.820,8.930,-19.510,-1.500,-46.813,-1.250
-6.010,7.790,-19.450,8.188,-77.250,3.563
-2.940,6.030,-15.640,17.937,-125.063,14.688
-2.910,6.320,-14.140,16.437,-152.375,30.750
-2.910,6.320,-14.140,13.188,-141.250,44.750
-3.420,8.110,-13.730,13.188,-141.250,44.750
-4.300,12.020,-14.240,25.500,-115.750,47.000
-4.870,11.660,-16.060,33.563,-93.750,40.000
-5.330,9.950,-18.520,22.000,-82.438,31.625
-5.330,9.950,-18.520,22.000,-82.438,31.625
-5.530,8.540,-20.110,-9.000,-78.875,47.125
-3.620,9.260,-18.740,-46.625,-104.313,79.313
-2.530,10.980,-16.690,-56.625,-145.187,82.000
-2.530,10.980,-16.690,-56.625,-145.187,82.000
-0.850,11.870,-14.930,-45.000,-159.062,66.438
-0.750,11.760,-13.020,-41.000,-142.062,59.813
-0.750,11.760,-13.020,-48.813,-103.750,68.438
-2.200,8.420,-13.170,-48.813,-103.750,68.438
-2.200,8.420,-13.170,-48.813,-103.750,68.438
-2.550,7.880,-12.200,-47.875,-78.875,86.125
-2.040,7.480,-11.230,-44.875,-72.250,101.750
-0.180,7.150,-9.820,-36.625,-70.000,113.813
-0.180,7.150,-9.820,-23.062,-62.688,117.250
-0.080,5.190,-11.610,-23.062,-62.688,117.250
-1.370,6.130,-13.260,-15.125,-48.313,111.250
-1.370,6.130,-13.260,-21.812,-39.688,110.313
-1.300,8.320,-14.070,-21.812,-39.688,110.313
-0.920,10.660,-14.070,-25.875,-42.250,103.813
0.160,11.920,-13.220,-21.812,-61.063,89.313
0.160,11.920,-13.220,-21.812,-61.063,89.313
0.690,10.360,-12.900,-14.000,-75.063,70.688
0.540,8.670,-12.160,-10.188,-85.375,56.625
0.540,8.670,-12.160,-13.375,-86.125,55.000
2.030,5.990,-10.240,-13.375,-86.125,55.000
3.170,5.300,-9.210,-20.500,-78.813,67.375
3.170,5.300,-9.210,-22.687,-65.625,81.250
3.920,5.230,-8.920,-22.687,-65.625,81.250
3.590,5.830,-9.250,-18.187,-43.313,88.750
3.840,8.640,-11.120,-4.312,-31.000,91.250
3.840,8.640,-11.120,-4.312,-31.000,91.250
4.020,9.960,-11.910,7.000,-29.437,87.188
3.850,11.600,-12.410,5.250,-24.750,77.563
3.850,11.600,-12.410,5.250,-24.750,77.563
4.120,13.000,-12.530,-1.437,-25.687,64.875
6.100,13.990,-12.500,-8.063,-25.937,49.438
6.650,13.560,-12.140,-2.000,-28.437,29.937
6.650,13.560,-12.140,-2.000,-28.437,29.937
7.040,13.160,-11.860,6.125,-30.562,9.313
7.040,13.160,-11.860,12.438,-22.687,-3.688
7.160,12.810,-11.410,12.438,-22.687,-3.688
5.680,10.820,-10.920,12.500,-15.750,-1.750
4.480,10.420,-11.610,5.562,-5.687,5.125
3.450,9.990,-12.420,9.813,2.500,8.250
3.450,9.990,-12.420,9.813,2.500,8.250
2.920,10.430,-13.090,24.062,-1.312,4.687
2.920,10.430,-13.090,24.062,-1.312,4.687
5.130,13.870,-12.890,29.187,-5.250,2.000
4.200,14.640,-13.350,35.375,1.687,-11.563
4.200,14.640,-13.350,28.687,-1.375,-22.937
3.990,14.040,-14.660,28.687,-1.375,-22.937
4.510,12.360,-14.500,23.562,-18.625,-62.688
4.510,12.360,-14.500,23.562,-18.625,-62.688
2.750,8.830,-13.530,8.375,-10.500,-69.438
1.740,8.530,-12.200,-2.625,-8.750,-54.500
1.740,8.530,-12.200,-2.625,-8.750,-54.500
0.430,8.490,-10.360,-1.812,-2.500,-41.563
-0.280,10.220,-6.100,19.875,10.750,-39.313
0.000,11.710,-6.210,21.250,55.375,-19.812
0.000,11.710,-6.210,17.750,73.813,-16.250
1.040,12.850,-7.600,17.750,73.813,-16.250
1.180,13.680,-9.570,28.312,87.438,-39.375
1.180,13.680,-9.570,28.312,87.438,-39.375
1.620,14.360,-13.190,20.500,94.313,-56.438
1.110,12.770,-14.060,4.125,85.625,-63.750
-1.910,11.570,-15.120,-17.375,71.313,-67.438
-1.910,11.570,-15.120,-17.375,71.313,-67.438
-4.420,12.190,-15.580,-27.375,43.000,-73.000
-4.420,12.190,-15.580,-27.375,43.000,-73.000
-2.620,12.620,-11.240,-22.812,7.687,-71.750
-2.590,12.630,-10.220,-9.375,-11.875,-60.875
-3.260,11.640,-10.950,35.125,-14.625,-71.875
-3.730,9.620,-12.090,64.688,-19.000,-78.125
-3.730,9.620,-12.090,64.688,-19.000,-78.125
-5.180,8.250,-15.820,53.250,-19.812,-56.438
-5.180,8.250,-15.820,29.250,-12.688,-35.875
-6.860,8.130,-18.240,29.250,-12.688,-35.875
-6.990,8.610,-18.240,0.125,-16.500,-16.062
-6.410,9.870,-16.570,-34.125,-22.187,3.125
-6.670,9.070,-13.980,-59.750,-5.875,2.875
-6.670,9.070,-13.980,-59.750,-5.875,2.875
-8.440,7.470,-14.750,-66.000,30.812,-15.188
-8.440,7.470,-14.750,-54.188,59.313,-37.563
-10.670,7.480,-14.740,-54.188,59.313,-37.563
-11.240,8.340,-14.400,-38.750,79.438,-39.000
-9.080,9.110,-13.730,-29.687,89.438,-32.188
-9.080,9.110,-13.730,-13.313,82.313,-38.813
-6.920,10.290,-13.110,-13.313,82.313,-38.813
-5.070,11.930,-12.830,-1.562,63.625,-55.438
-5.070,11.930,-12.830,-1.562,63.625,-55.438
-4.470,12.520,-13.310,-9.125,56.938,-76.500
-5.670,10.280,-13.470,-38.375,64.813,-82.938
-5.670,10.280,-13.470,-80.938,79.563,-52.875
-9.150,8.770,-13.440,-80.938,79.563,-52.875
-11.500,8.000,-13.950,-95.750,89.688,-17.125
-11.500,8.000,-13.950,-76.375,69.188,-2.063
-11.280,6.550,-12.880,-76.375,69.188,-2.063
-9.590,6.140,-10.840,-39.000,29.375,2.125
-9.590,6.140,-10.840,-12.438,-12.438,6.687
-7.610,7.710,-8.820,-12.438,-12.438,6.687
-5.250,9.510,-7.620,-7.437,-32.438,7.500
-2.390,12.810,-5.090,-17.312,-22.875,-11.438
-2.390,12.810,-5.090,-38.438,18.062,-29.187
-3.430,12.410,-6.630,-38.438,18.062,-29.187
-6.430,10.930,-10.020,-63.250,84.375,-30.625
-6.430,10.930,-10.020,-87.875,144.750,-19.062
-9.770,10.960,-12.950,-87.875,144.750,-19.062
-10.040,11.090,-11.920,-85.250,147.062,-11.688
-9.130,11.260,-9.990,-58.313,87.625,-29.312
-9.130,11.260,-9.990,-30.937,24.750,-58.625
-8.350,11.290,-8.190,-30.937,24.750,-58.625
-8.350,8.910,-7.040,4.062,-17.312,-89.813
-8.350,8.910,-7.040,34.625,-49.313,-104.188
-9.030,6.080,-6.570,34.625,-49.313,-104.188
-9.300,7.330,-7.200,30.062,-75.250,-91.875
-10.680,8.930,-8.230,2.063,-63.125,-56.125
-10.680,8.930,-8.230,-23.000,-19.562,-34.438
-13.360,11.630,-10.280,-23.000,-19.562,-34.438
-14.830,12.310,-11.410,-35.750,12.313,-25.062
-14.830,12.310,-11.410,-35.750,12.313,-25.062
-14.600,13.170,-11.630,-34.125,20.875,-21.562
-12.620,13.550,-10.740,-33.188,14.625,-22.375
-10.020,12.350,-8.440,-33.938,7.187,-13.313
-10.020,12.350,-8.440,-27.750,-4.562,-10.875
-9.180,11.440,-7.760,-27.750,-4.562,-10.875
-8.890,10.420,-8.120,-18.250,-9.000,-12.875
-8.890,10.420,-8.120,-18.250,-9.000,-12.875
-8.560,9.680,-7.960,-7.875,-6.187,-15.438
-6.920,10.150,-7.510,-6.625,0.312,-10.625
-7.020,10.400,-8.200,-8.625,24.250,-5.812
-7.020,10.400,-8.200,-8.625,24.250,-5.812
-7.040,10.650,-8.880,-8.313,48.250,-1.562
-7.040,10.650,-8.880,-9.438,58.750,4.062
-7.000,11.080,-9.550,-9.438,58.750,4.062
-7.130,12.100,-10.600,-9.125,57.000,7.562
-6.470,12.090,-10.490,-4.937,43.125,4.250
-5.890,11.850,-10.550,-0.562,26.750,-1.875
-5.890,11.850,-10.550,-0.562,26.750,-1.875
-5.340,12.230,-10.640,5.937,12.000,-7.375
-5.340,12.230,-10.640,11.063,2.313,-9.063
-3.790,12.030,-10.320,11.063,2.313,-9.063
-3.480,12.610,-10.240,9.438,-1.875,-0.562
-3.490,12.710,-10.290,1.187,1.625,9.250
-3.920,12.490,-10.260,-5.562,12.063,16.375
-3.920,12.490,-10.260,-5.562,12.063,16.375
-4.440,11.990,-10.370,-10.438,22.625,18.125
-4.440,11.990,-10.370,-11.500,31.875,15.000
-4.720,11.330,-10.520,-11.500,31.875,15.000
-5.000,11.280,-10.580,-6.562,35.188,7.937
-4.670,11.380,-10.470,-2.375,31.750,4.375
-4.670,11.380,-10.470,-2.125,25.125,3.438
-4.460,11.220,-10.330,-2.125,25.125,3.438
-4.310,10.990,-10.420,-3.750,21.437,2.938
-4.310,10.990,-10.420,-3.750,21.437,2.938
-4.230,10.970,-10.320,-3.438,19.500,2.313
-4.230,10.970,-10.320,-7.937,23.625,6.062
-3.590,11.550,-9.790,-7.937,23.625,6.062
-3.640,11.680,-9.960,-11.438,31.437,7.937
-4.110,11.690,-10.230,-11.063,38.188,6.062
-4.110,11.690,-10.230,-9.250,39.813,6.250
-4.490,11.680,-10.180,-9.250,39.813,6.250
-4.490,11.680,-10.180,-3.000,35.938,7.937
-5.020,10.790,-10.910,-3.000,35.938,7.937
-5.230,10.720,-11.290,10.000,23.937,5.875
-4.760,11.150,-11.290,20.062,6.437,1.125
-4.030,11.680,-11.050,20.687,-6.625,1.875
-4.030,11.680,-11.050,20.687,-6.625,1.875
-3.790,11.930,-10.870,17.125,-7.750,6.062
-3.790,11.930,-10.870,11.500,0.750,7.562
-4.020,12.080,-11.110,11.500,0.750,7.562
-4.000,12.010,-11.210,6.812,5.125,8.000
-3.530,11.660,-10.690,5.750,2.813,5.500
-3.530,11.660,-10.690,6.750,1.562,0.687
-3.430,11.350,-10.460,6.750,1.562,0.687
-3.790,11.380,-10.790,6.000,5.875,0.750
-3.790,11.380,-10.790,6.000,5.875,0.750
-4.230,11.550,-11.280,6.562,11.688,0.812
-4.810,12.170,-12.230,8.625,11.125,-3.625
-4.810,12.170,-12.230,8.625,11.125,-3.625
-4.200,12.210,-11.910,12.313,1.250,-11.063
-3.690,12.110,-11.550,12.625,-12.563,-17.062
-3.690,12.110,-11.550,8.125,-18.875,-19.437
-3.400,11.760,-10.890,8.125,-18.875,-19.437
-3.000,10.800,-10.070,0.687,-16.562,-16.062
-3.000,10.800,-10.070,-5.812,-5.562,-8.313
-3.230,10.920,-10.100,-5.812,-5.562,-8.313
-3.380,11.030,-10.180,-8.000,6.437,-2.563
-3.670,10.930,-10.570,-6.812,16.312,2.188
-3.670,10.930,-10.570,-6.812,16.312,2.188
-4.600,11.230,-11.110,-5.812,22.687,6.750
-4.850,11.400,-11.650,-3.750,23.437,8.563
-4.850,11.400,-11.650,-3.750,23.437,8.563
-5.050,11.710,-11.960,2.000,16.812,3.813
-4.850,11.880,-12.000,6.875,4.437,-3.125
-4.150,11.790,-11.210,8.750,-8.563,-9.000
-4.150,11.790,-11.210,8.750,-8.563,-9.000
-3.710,11.710,-10.700,7.000,-16.000,-13.000
-3.380,11.300,-10.430,5.250,-15.750,-15.563
-3.380,11.300,-10.430,5.250,-15.750,-15.563
-3.220,11.290,-10.330,2.375,-11.188,-14.500
-3.610,10.930,-10.220,-2.875,-2.813,-6.312
-4.190,10.900,-10.800,-5.062,8.563,0.062
-4.190,10.900,-10.800,-5.062,8.563,0.062
-4.590,11.070,-10.850,-2.375,17.125,4.875
-4.680,11.290,-11.050,1.312,18.375,7.000
-4.680,11.290,-11.050,1.312,18.375,7.000
-4.660,11.240,-11.150,5.750,14.500,5.437
-4.500,11.050,-10.990,11.313,7.812,0.187
-4.190,11.000,-10.710,16.062,1.250,-3.188
-4.190,11.000,-10.710,16.062,1.250,-3.188
-3.450,11.080,-10.600,17.062,-0.500,-5.187
-3.450,11.080,-10.600,15.438,1.000,-6.687
-3.400,11.460,-10.810,15.438,1.000,-6.687
-3.550,11.870,-11.120,7.187,4.562,-2.938
-3.630,11.950,-11.200,-2.250,10.500,3.750
-4.080,11.900,-11.390,-7.687,15.188,7.687
-4.080,11.900,-11.390,-7.687,15.188,7.687
-4.420,11.860,-11.670,-9.438,16.500,8.500
-4.420,11.860,-11.670,-9.438,16.500,8.500
-4.420,11.860,-11.670,-7.687,12.750,5.500
-4.570,11.800,-11.710,-7.687,12.750,5.500
-4.420,11.580,-11.570,-2.063,5.375,-0.125
-4.000,11.210,-11.100,4.250,-2.375,-5.562
-3.610,11.020,-10.820,10.375,-8.875,-9.750
-3.610,11.020,-10.820,10.375,-8.875,-9.750
-3.350,11.150,-10.650,14.313,-12.000,-12.500
-3.350,11.150,-10.650,13.438,-8.188,-13.563

-3.980,11.240,-11.050,7.187,0.687,-11.375
-3.980,11.240,-11.050,-1.875,10.375,-5.375
-4.170,11.330,-11.070,-1.875,10.375,-5.375
-4.380,11.260,-11.370,-6.250,15.250,-1.250
-5.140,11.760,-11.950,-1.875,4.625,-1.937
-5.140,11.760,-11.950,-1.875,4.625,-1.937
-4.710,11.720,-11.720,1.312,-4.187,-5.750
-4.710,11.720,-11.720,3.750,-10.625,-9.875
-4.460,11.340,-11.200,3.750,-10.625,-9.875
-4.080,11.090,-10.860,4.625,-11.688,-11.500
-3.740,10.310,-10.240,6.500,-13.500,-14.188
-3.740,10.310,-10.240,7.625,-14.688,-13.375
-3.620,10.300,-10.110,7.625,-14.688,-13.375
-3.650,10.370,-10.310,6.687,-8.313,-8.563
-3.650,10.370,-10.310,6.687,-8.313,-8.563
-3.760,10.710,-10.640,3.500,3.438,-2.000
-4.450,11.200,-11.360,-1.750,12.688,5.750
-4.530,11.330,-11.490,-3.500,16.687,10.750
-4.530,11.330,-11.490,-3.500,16.687,10.750
-4.590,11.360,-11.550,-2.625,15.125,10.625
-4.430,11.290,-11.380,0.125,9.063,7.312
-4.430,11.290,-11.380,0.125,9.063,7.312
-4.180,10.800,-11.130,2.750,3.125,2.500
-3.930,10.820,-10.890,5.625,-2.000,-0.062
-3.730,10.910,-10.800,6.625,-5.250,0.687
-3.730,10.910,-10.800,6.625,-5.250,0.687
-3.620,10.840,-10.790,6.375,-4.375,1.125
-3.620,10.840,-10.790,4.375,-0.875,2.813
-3.650,10.900,-10.900,4.375,-0.875,2.813
-3.830,10.970,-11.210,2.813,4.437,4.375
-4.340,11.270,-11.750,1.562,10.438,5.562
-5.230,12.450,-12.970,-0.375,14.438,6.812
-5.230,12.450,-12.970,-0.375,14.438,6.812
-4.850,12.540,-12.810,2.313,10.250,4.500
-4.850,12.540,-12.810,7.000,-4.062,-2.938
-4.520,12.390,-12.470,7.000,-4.062,-2.938
-4.090,12.030,-11.820,9.688,-19.625,-12.563
-3.360,10.590,-10.400,8.625,-27.062,-19.562
-3.360,10.590,-10.400,8.625,-27.062,-19.562
-3.210,10.110,-10.090,4.187,-22.687,-19.312
-3.210,10.110,-10.090,0.250,-12.375,-13.875
-3.270,9.750,-9.940,0.250,-12.375,-13.875
-3.610,9.740,-10.250,-3.750,-0.937,-4.687
-3.610,9.740,-10.250,-6.562,10.813,5.687
-3.910,10.440,-10.890,-6.562,10.813,5.687
-4.460,10.780,-11.640,-6.625,21.375,13.250
-4.900,11.180,-12.030,-5.000,26.937,16.125
-4.900,11.180,-12.030,2.125,13.313,9.750
-5.020,11.640,-12.410,2.125,13.313,9.750
-4.310,12.170,-12.210,2.125,13.313,9.750
-4.310,12.170,-12.210,7.562,-0.125,1.625
-4.100,11.830,-11.820,7.562,-0.125,1.625
-4.020,11.460,-11.470,7.375,-15.813,-9.813
-3.640,11.200,-11.100,4.437,-16.000,-10.313
-3.640,11.200,-11.100,4.437,-16.000,-10.313
-3.150,10.740,-10.410,3.500,-13.250,-10.813
-3.150,10.740,-10.410,1.875,-7.125,-10.813
-3.190,10.550,-10.350,1.875,-7.125,-10.813
-3.370,10.420,-10.490,-1.250,2.313,-7.625
-3.760,10.470,-10.780,-2.250,12.313,-2.938
-4.430,10.830,-11.450,-0.125,16.812,-0.437
-4.430,10.830,-11.450,-0.125,16.812,-0.437
-4.490,10.960,-11.640,2.250,14.813,-0.062
-4.490,10.960,-11.640,3.313,9.375,-1.062
-4.470,11.040,-11.720,3.313,9.375,-1.062
-4.180,11.040,-11.390,1.750,5.875,0.312
-4.020,10.900,-11.270,0.687,4.000,3.063
-4.020,10.900,-11.270,-1.375,1.625,5.625
-3.930,10.730,-11.220,-1.375,1.625,5.625
-3.880,10.670,-11.210,-3.375,0.125,7.500
-3.880,10.670,-11.210,-3.375,0.125,7.500
-3.780,10.810,-11.040,-5.187,2.000,9.000
-3.950,10.810,-11.210,-5.062,6.875,9.688
-4.300,10.820,-11.730,-2.438,11.000,9.313
-4.300,10.820,-11.730,2.250,7.937,6.125
-4.590,11.120,-12.050,2.250,7.937,6.125
-4.170,11.610,-11.940,6.687,1.812,0.000
-4.170,11.610,-11.940,6.687,1.812,0.000
-3.950,11.320,-11.670,10.125,-2.938,-6.062
-3.750,11.210,-11.540,11.125,-4.125,-8.625
-3.540,11.240,-11.450,8.563,-3.438,-8.188
-3.660,11.130,-11.270,1.062,-0.125,-4.437
-3.660,11.130,-11.270,1.062,-0.125,-4.437
-3.940,11.060,-11.400,-5.125,5.250,0.125
-3.940,11.060,-11.400,-8.813,7.187,3.625
-4.140,11.040,-11.590,-8.813,7.187,3.625
-4.270,10.970,-11.730,-9.375,3.875,4.000
-4.220,10.850,-11.410,-7.875,-1.062,3.125
-4.050,10.870,-11.210,-4.562,-2.500,3.063
-4.050,10.870,-11.210,-4.562,-2.500,3.063
-3.820,10.860,-11.050,-0.062,-1.750,3.375
-3.820,10.860,-11.050,2.688,-0.750,1.937
-3.590,11.000,-11.140,2.688,-0.750,1.937
-3.570,11.070,-11.130,4.187,-0.250,0.312
-3.520,11.110,-11.180,5.125,0.875,-1.750
-3.520,11.110,-11.180,4.750,0.937,-4.312
-3.520,11.170,-11.320,4.750,0.937,-4.312
-3.660,10.990,-11.220,2.125,0.062,-5.500
-3.660,10.990,-11.220,2.125,0.062,-5.500
-3.790,10.880,-11.300,1.062,0.937,-5.937
-0.260,0.600,-0.190,1.500,1.375,-5.687
-0.260,0.600,-0.190,2.813,0.500,-5.500
-0.210,0.610,-0.180,2.813,0.500,-5.500
-0.050,0.680,-0.050,4.187,-1.375,-5.750
-0.050,0.680,-0.050,3.938,-0.375,-4.687
0.080,0.850,0.100,3.938,-0.375,-4.687
0.060,0.840,-0.020,2.063,3.875,-2.375
0.060,0.840,-0.020,0.687,5.937,-1.000
-0.160,0.800,-0.210,0.687,5.937,-1.000
-0.440,0.610,-0.300,0.625,4.437,-0.750
-0.540,0.530,-0.240,0.687,1.562,-1.000
-0.540,0.530,-0.240,0.687,1.562,-1.000
-0.620,0.340,-0.210,1.937,0.562,-1.062
-0.480,0.380,-0.080,2.375,0.687,0.375
-0.480,0.380,-0.080,2.375,0.687,0.375
-0.250,0.490,-0.080,3.125,1.812,1.437
-0.470,0.580,-0.310,4.375,4.000,0.625
-0.590,0.710,-0.530,4.125,5.250,-0.125
-0.590,0.710,-0.530,4.125,5.250,-0.125
-0.610,1.150,-0.700,2.563,5.000,0.437
-0.470,1.280,-0.670,3.500,1.687,-0.875
-0.470,1.280,-0.670,3.500,1.687,-0.875
-0.300,1.250,-0.490,3.188,-3.250,-3.750
-0.160,1.020,-0.290,-0.312,-5.125,-4.312
-0.070,0.470,0.040,-1.937,-4.312,-3.500
-0.070,0.470,0.040,-1.937,-4.312,-3.500
-0.020,0.390,0.090,-2.813,-3.188,-0.812
-0.090,0.550,0.020,-3.375,-2.063,1.437
-0.090,0.550,0.020,-3.375,-2.063,1.437
-0.120,0.600,-0.070,-2.625,-0.812,1.875
-0.340,0.620,-0.230,-2.063,1.312,2.438
-0.290,0.880,-0.360,-2.500,2.000,4.312
-0.290,0.880,-0.360,-1.000,0.937,2.938
-0.150,1.010,-0.310,-1.000,0.937,2.938
-0.120,0.970,-0.270,0.625,-0.687,-0.062
-0.120,0.970,-0.270,0.625,-0.687,-0.062
-0.330,0.870,-0.370,1.437,-1.875,-2.438
-0.300,0.800,-0.250,2.688,-5.062,-4.750
-0.170,0.590,0.020,3.188,-8.125,-5.875
-0.170,0.590,0.020,3.188,-8.125,-5.875
-0.030,0.370,0.210,4.375,-8.750,-6.687
0.000,0.050,0.430,4.687,-6.187,-5.250
0.000,0.050,0.430,4.687,-6.187,-5.250
-0.070,0.070,0.220,3.688,-0.812,-1.187
-0.210,0.300,0.020,2.250,4.375,2.313
-0.290,0.750,-0.160,1.125,7.750,4.500
-0.290,0.750,-0.160,1.125,7.750,4.500
-0.310,0.880,-0.400,2.125,7.375,4.687
-0.310,0.880,-0.400,2.500,5.187,4.250
-0.410,1.010,-0.500,2.500,5.187,4.250
-0.280,1.090,-0.410,1.625,2.313,4.500
-0.170,0.870,-0.400,0.437,-0.187,3.938
-0.220,0.800,-0.260,-1.000,-1.625,2.750
-0.220,0.800,-0.260,-1.000,-1.625,2.750
-0.150,0.720,-0.210,-2.125,-2.125,2.188
-0.150,0.720,-0.210,-2.000,-1.437,0.375
-0.160,0.690,-0.200,-2.000,-1.437,0.375
-0.350,0.480,-0.170,-0.750,-0.125,-1.437
-0.380,0.490,-0.170,1.875,1.250,-2.000
-0.430,0.620,-0.230,4.187,2.813,-3.125
-0.430,0.620,-0.230,4.187,2.813,-3.125
-0.310,0.870,-0.280,4.625,3.125,-3.813
-0.310,0.870,-0.280,6.125,0.375,-4.687
-0.220,0.840,-0.380,6.125,0.375,-4.687
-0.130,0.970,-0.400,5.875,-2.313,-4.937
-0.040,1.160,-0.400,2.563,-2.875,-3.625
-0.040,1.160,-0.400,-2.500,-2.313,-1.687
0.020,1.210,-0.340,-2.500,-2.313,-1.687
-0.080,0.950,-0.240,-6.125,-0.562,-0.437
-0.080,0.950,-0.240,-6.125,-0.562,-0.437
-0.210,0.730,-0.290,-7.375,-0.875,-0.187
-0.280,0.490,-0.220,-5.687,-3.188,-1.437
-0.280,0.490,-0.220,-5.687,-3.188,-1.437
-0.310,0.400,-0.050,-3.000,-4.312,-2.250
-0.150,0.370,0.070,0.187,-4.312,-3.000
-0.150,0.370,0.070,3.375,-3.563,-3.313
-0.090,0.400,0.060,3.375,-3.563,-3.313
0.010,0.490,0.120,4.625,-2.063,-3.813
0.010,0.490,0.120,3.375,1.125,-2.938
0.000,0.720,-0.040,3.375,1.125,-2.938
-0.160,0.770,-0.190,0.687,5.187,-1.000
-0.330,0.780,-0.320,-1.687,7.062,1.062
-0.330,0.780,-0.320,-1.687,7.062,1.062
-0.440,0.690,-0.390,-3.000,5.187,1.500
-0.410,0.670,-0.330,-4.187,2.875,1.562
-0.410,0.670,-0.330,-4.187,2.875,1.562
-0.570,0.640,-0.450,-2.813,1.187,0.875
-0.440,0.750,-0.330,-0.437,-1.062,0.125
-0.160,0.800,-0.140,0.875,-3.875,0.437
-0.160,0.800,-0.140,1.625,-4.437,0.375
-0.030,0.660,0.170,1.625,-4.437,0.375
-0.080,0.500,0.120,2.688,-1.750,-0.500
-0.080,0.500,0.120,2.688,-1.750,-0.500
-0.140,0.420,0.000,2.063,1.000,-0.062
-0.220,0.450,-0.020,0.687,2.000,0.625
-0.260,0.540,-0.140,0.375,2.688,0.875
-0.260,0.540,-0.140,0.375,2.688,0.875
-0.270,0.750,-0.230,-0.625,3.750,1.625
-0.270,0.750,-0.230,-0.625,3.750,1.625
-0.200,0.820,-0.170,-1.562,4.812,1.250
-0.170,0.850,-0.240,-2.500,5.937,1.437
-0.410,0.830,-0.340,-2.250,5.375,2.750
-0.410,0.830,-0.340,-1.062,3.375,2.938
-0.350,0.870,-0.340,-1.062,3.375,2.938
-0.290,0.860,-0.280,-0.375,0.875,1.937
-0.290,0.860,-0.280,-0.375,0.875,1.937
-0.190,0.430,-0.120,1.062,-2.000,-0.062
-0.190,0.430,-0.120,0.812,-2.375,-0.375
-0.220,0.520,-0.020,0.812,-2.375,-0.375
-0.020,0.540,0.070,1.812,-2.625,0.375
0.010,0.460,0.090,2.563,-2.313,-0.437
0.010,0.460,0.090,2.250,0.312,-1.437
-0.370,0.630,-0.230,2.250,0.312,-1.437
-0.270,0.810,-0.250,1.625,2.625,-0.875
-0.270,0.810,-0.250,1.625,2.625,-0.875
-0.230,0.940,-0.340,0.625,3.938,-0.125
-0.200,0.990,-0.360,0.000,3.500,-0.375
-0.050,0.740,-0.210,0.437,1.625,-1.437
-0.050,0.740,-0.210,0.437,1.625,-1.437
-0.020,0.640,-0.160,0.812,1.187,-2.313
-0.020,0.640,-0.160,0.812,1.187,-2.313
0.050,0.710,-0.110,0.937,0.500,-1.812
0.080,0.750,-0.210,1.437,0.000,-0.687
-0.200,0.900,-0.400,0.750,-0.562,0.125
-0.200,0.900,-0.400,0.750,-0.562,0.125
-0.250,0.920,-0.460,-0.687,-0.312,0.187
-0.320,0.950,-0.440,-2.188,0.437,-0.437
-0.320,0.950,-0.440,-2.188,0.437,-0.437
-0.410,0.920,-0.460,-3.125,0.375,-1.125
-0.410,0.740,-0.270,-3.188,-0.562,-2.000
-0.410,0.740,-0.270,-3.188,-0.562,-2.000
-0.260,0.620,-0.100,-2.813,-1.000,-2.625
-0.260,0.450,0.000,-2.125,-0.625,-2.688
-0.260,0.450,0.000,-0.812,0.000,-2.250
-0.320,0.420,0.000,-0.812,0.000,-2.250
-0.020,-0.110,0.110,0.812,-0.125,-1.562
-0.020,-0.110,0.110,2.875,-1.000,-1.625
0.090,-0.030,0.140,2.875,-1.000,-1.625
0.130,0.000,0.130,4.250,-1.187,-2.563
-0.170,-0.070,-0.250,3.313,1.062,-1.750
-0.170,-0.070,-0.250,3.313,1.062,-1.750
-0.280,0.240,-0.190,0.187,3.813,1.125
-0.130,0.360,-0.150,-2.563,4.437,3.625
-0.130,0.360,-0.150,-2.563,4.437,3.625
-0.150,0.270,-0.220,-2.313,2.750,3.375
-0.460,0.250,-0.330,-1.250,0.312,2.000
-0.210,0.180,-0.190,-0.187,-2.813,1.250
-0.210,0.180,-0.190,1.187,-5.250,0.500
0.020,0.150,0.020,1.187,-5.250,0.500
0.160,0.150,0.130,2.750,-5.625,-1.062

-3.090,1.000,1.700,-13.125,30.250,-48.063
-3.090,1.000,1.700,-24.625,74.938,-72.313
-4.640,0.640,1.930,-24.625,74.938,-72.313
-10.530,-2.950,0.810,-33.875,123.750,-87.000
-14.320,-3.140,-1.660,-45.375,157.687,-75.125
-14.320,-3.140,-1.660,-45.375,157.687,-75.125
-16.880,-1.310,-3.680,-55.813,176.187,-40.688
-16.880,-1.310,-3.680,-55.813,176.187,-40.688
-18.030,0.870,-4.850,-56.875,163.937,-10.063
-18.790,2.780,-4.200,-40.250,129.000,1.875
-17.010,1.520,-3.350,-30.875,78.063,-1.062
-17.010,1.520,-3.350,-30.875,78.063,-1.062
-16.830,-0.030,-3.350,-51.188,28.187,-0.187
-16.830,-0.030,-3.350,-61.875,-17.500,7.812
-15.920,-1.860,-3.410,-61.875,-17.500,7.812
-13.210,-6.590,-2.440,-53.375,-64.938,10.813
-12.000,-7.940,-2.000,-41.438,-108.188,20.125
-12.000,-7.940,-2.000,-29.875,-144.875,36.000
-9.780,-8.740,-1.390,-29.875,-144.875,36.000
-7.320,-9.040,0.180,-4.875,-176.000,52.688
-7.320,-9.040,0.180,-4.875,-176.000,52.688
-3.620,-4.370,2.180,11.000,-196.312,69.500
-1.490,-2.770,2.140,16.250,-190.312,80.875
-1.490,-2.770,2.140,16.250,-190.312,80.875
-0.740,-1.030,1.250,24.250,-169.562,91.688
-1.750,3.650,-3.330,15.438,-143.750,99.125
-1.750,3.650,-3.330,-20.250,-124.188,95.250
-3.180,4.760,-6.730,-20.250,-124.188,95.250
-3.280,5.020,-8.530,-54.375,-124.250,76.125
-3.280,5.020,-8.530,-54.375,-124.250,76.125
-2.340,3.710,-8.420,-68.563,-145.187,41.688
-2.270,-1.560,-6.510,-55.125,-176.250,7.500
0.330,-4.210,-5.250,-22.125,-207.375,-31.437
0.330,-4.210,-5.250,-22.125,-207.375,-31.437
4.740,-6.510,-1.860,34.625,-243.937,-54.875
5.700,-6.740,3.120,93.063,-270.250,-35.563
5.700,-6.740,3.120,93.063,-270.250,-35.563
9.310,-1.140,5.000,95.125,-222.812,4.437
9.310,-1.140,5.000,67.375,-134.562,46.375
9.550,0.300,3.240,67.375,-134.562,46.375
7.030,1.690,-1.720,44.563,-52.188,75.750
3.600,2.600,-7.020,8.500,8.125,99.938
3.600,2.600,-7.020,8.500,8.125,99.938
3.500,2.410,-12.090,-21.750,14.000,106.313
3.500,2.410,-12.090,-24.812,-19.812,88.250
4.100,1.170,-11.910,-24.812,-19.812,88.250
5.550,-0.370,-9.750,-11.625,-59.250,60.375
5.550,-0.370,-9.750,0.125,-93.250,35.750
7.200,-1.320,-6.990,0.125,-93.250,35.750
10.310,-1.300,-0.380,17.500,-124.313,27.437
10.310,-1.300,-0.380,17.500,-124.313,27.437
10.440,-1.760,1.730,24.312,-128.312,35.563
10.440,-1.760,1.730,8.063,-98.438,65.563
10.490,-2.920,2.510,8.063,-98.438,65.563
9.040,-1.030,1.780,-12.875,-59.813,100.063
8.360,-0.400,0.200,-32.375,-23.562,130.187
8.360,-0.400,0.200,-26.625,-5.750,138.437
6.590,-0.660,-2.360,-26.625,-5.750,138.437
4.930,-0.840,-5.660,-2.875,-0.937,126.875
4.930,-0.840,-5.660,-2.875,-0.937,126.875
4.740,-0.280,-8.100,21.500,-12.500,103.250
6.190,0.550,-5.530,48.375,-54.063,69.000
6.190,0.550,-5.530,48.375,-54.063,69.000
7.870,1.470,-1.780,78.750,-122.000,34.125
7.870,1.470,-1.780,84.750,-141.937,17.062
8.970,1.950,0.760,84.750,-141.937,17.062
8.360,-0.760,1.570,53.688,-106.875,12.375
8.360,-0.760,1.570,17.125,-74.000,7.312
7.000,-1.770,1.140,17.125,-74.000,7.312
6.390,-1.780,0.710,-10.000,-46.938,21.250
6.600,-1.300,0.540,-21.312,-27.250,42.250
6.600,-1.300,0.540,-21.312,-27.250,42.250
7.120,0.590,-0.160,-14.688,-12.375,54.625
7.120,0.590,-0.160,-14.688,-12.375,54.625
7.090,0.460,-1.210,-9.250,8.250,64.250
7.090,0.460,-1.210,-2.563,23.937,61.500
7.160,0.170,-2.020,-2.563,23.937,61.500
6.910,0.210,-2.420,18.937,4.187,43.313
9.320,3.260,-0.320,36.313,-27.500,20.875
9.320,3.260,-0.320,36.313,-27.500,20.875
8.920,3.940,0.410,45.813,-48.063,1.625
8.650,2.940,0.580,39.250,-34.500,-18.562
8.650,2.940,0.580,39.250,-34.500,-18.562
6.400,0.170,0.530,27.312,-34.500,-43.875
5.600,-1.270,0.220,16.437,-34.063,-55.875
5.280,-2.480,-0.260,5.625,-14.188,-50.750
5.280,-2.480,-0.260,-2.813,7.687,-35.875
4.900,-3.160,-0.890,-2.813,7.687,-35.875
5.160,-2.350,-1.450,-1.125,24.000,-21.125
5.160,-2.350,-1.450,-1.125,24.000,-21.125
5.610,-0.770,-1.510,5.062,31.562,-9.375
5.840,1.040,-1.840,4.125,42.438,-3.563
7.000,2.910,-1.390,14.375,45.188,-13.750
7.000,2.910,-1.390,14.375,45.188,-13.750
8.500,3.370,-1.600,19.562,45.500,-39.125
8.500,3.370,-1.600,19.562,45.500,-39.125
7.540,2.660,-1.490,18.625,48.875,-69.813
6.600,1.200,-1.400,15.938,51.250,-99.313
6.600,1.200,-1.400,15.938,51.250,-99.313
6.180,-0.540,-1.410,4.812,54.625,-113.500
4.090,-2.210,-2.050,-6.062,60.938,-107.500
4.090,-2.210,-2.050,-12.875,62.063,-91.125
3.520,-1.970,-2.810,-12.875,62.063,-91.125
3.840,-1.340,-2.320,-7.437,56.563,-63.313
3.840,-1.340,-2.320,2.000,42.563,-23.937
4.410,-0.940,-1.620,2.000,42.563,-23.937
2.010,-0.480,-3.540,3.750,40.688,-4.437
1.490,0.960,-5.290,6.000,67.688,-7.437
1.490,0.960,-5.290,3.188,62.563,-21.187
3.020,4.140,-4.470,3.188,62.563,-21.187
4.630,6.550,-2.980,-26.500,43.125,-40.750
4.630,6.550,-2.980,-26.500,43.125,-40.750
4.410,3.820,-2.910,-37.125,44.625,-70.188
2.240,1.080,-3.890,-24.312,46.563,-104.500
1.350,-1.350,-3.640,-16.312,45.063,-127.813
1.350,-1.350,-3.640,-16.312,45.063,-127.813
0.350,-4.020,-2.680,-9.750,41.875,-126.188
0.350,-4.020,-2.680,-9.750,41.875,-126.188
-0.170,-4.310,-2.690,-10.875,31.812,-100.063
-1.070,-4.510,-2.920,-9.188,18.875,-67.188
-3.280,-3.530,-3.740,11.688,0.562,-44.250
-3.280,-3.530,-3.740,32.375,-29.562,-37.000
-1.620,0.400,-0.340,32.375,-29.562,-37.000
0.050,0.590,0.090,28.687,-49.688,-43.813
0.050,0.590,0.090,28.687,-49.688,-43.813
0.140,0.340,-0.330,28.687,-49.688,-43.813
-1.070,-0.940,-1.780,22.750,-32.813,-51.500
-1.070,-0.940,-1.780,22.750,-32.813,-51.500
-2.260,-3.010,-3.420,-23.500,-12.125,-28.125
-2.330,-2.900,-3.850,-44.000,-5.437,2.375
-2.330,-2.900,-3.850,-40.875,-1.250,22.750
-3.340,-1.540,-4.290,-40.875,-1.250,22.750
-4.100,0.230,-3.270,-30.250,-10.563,18.937
-4.100,0.230,-3.270,-19.312,-17.437,-2.875
-4.060,4.430,0.480,-19.312,-17.437,-2.875
-3.660,3.580,1.890,-11.500,-16.375,-34.438
-4.340,1.540,2.410,-11.625,6.062,-59.625
-4.340,1.540,2.410,-11.625,6.062,-59.625
-4.480,-1.090,2.460,-14.875,41.375,-57.438
-4.480,-1.090,2.460,-26.000,79.063,-24.750
-7.410,-5.440,1.880,-26.000,79.063,-24.750
-8.190,-5.910,1.610,-41.750,117.500,2.938
-8.170,-5.350,1.090,-47.813,159.312,28.375
-8.170,-5.350,1.090,-47.813,159.312,28.375
-7.780,1.450,-1.690,-41.875,187.687,31.562
-7.780,1.450,-1.690,-33.375,178.125,1.000
-8.220,2.500,-2.010,-33.375,178.125,1.000
-8.490,2.510,-2.580,-34.313,155.062,-46.063
-8.490,2.510,-2.580,-33.625,107.125,-81.438
-8.240,2.580,-2.230,-33.625,107.125,-81.438
-5.020,0.030,2.450,-35.625,60.875,-93.438
-2.790,-2.380,4.840,-48.250,49.125,-75.938
-2.790,-2.380,4.840,-79.188,71.938,-36.313
-2.100,-4.650,5.740,-79.188,71.938,-36.313
-3.120,-5.960,5.500,-103.250,118.625,11.188
-3.120,-5.960,5.500,-88.750,133.750,56.625
-4.400,-6.020,3.010,-88.750,133.750,56.625
-4.730,-5.290,1.680,-60.188,126.875,91.063
-5.160,-2.300,0.660,-35.688,113.125,110.188
-5.160,-2.300,0.660,-19.937,94.063,101.875
-5.140,0.580,-0.200,-19.937,94.063,101.875
-4.250,5.570,-3.090,-3.125,64.188,63.313
-4.250,5.570,-3.090,-3.125,64.188,63.313
-3.710,5.570,-2.640,10.063,36.250,17.750
-3.520,4.470,-1.660,-5.625,21.500,-0.250
-3.520,4.470,-1.660,-27.500,31.062,-13.000
-3.070,2.620,-0.190,-27.500,31.062,-13.000
-2.160,-1.700,2.580,-33.063,47.438,-23.125
-2.160,-1.700,2.580,-33.063,47.438,-23.125
-2.640,-3.090,3.410,-27.625,56.563,-20.250
-2.900,-3.600,3.390,-23.562,67.438,-5.062
-2.900,-3.600,3.390,-17.937,76.188,12.250
-3.510,-2.550,1.630,-17.937,76.188,12.250
-3.610,-1.460,0.830,-12.563,82.563,21.000
-3.740,-0.300,0.410,-10.750,84.375,20.625
-3.740,-0.300,0.410,-10.750,84.375,20.625
-3.610,0.330,0.210,-8.125,72.813,17.812
-3.610,0.330,0.210,-8.125,72.813,17.812
-2.490,0.020,0.600,-6.500,53.500,17.125
-1.960,-0.560,0.990,-4.375,33.938,16.687
-1.530,-0.860,1.340,-2.313,20.062,16.750
-1.530,-0.860,1.340,-2.313,20.062,16.750
-1.060,-0.740,1.530,-0.437,18.062,18.375
-1.060,-0.740,1.530,3.750,20.312,17.562
-1.050,-0.540,0.570,3.750,20.312,17.562
-2.200,-0.100,-0.790,7.562,14.813,18.125
-1.960,0.830,-1.040,11.500,-1.187,12.625
-1.960,0.830,-1.040,17.875,-22.875,-1.312
-0.450,0.940,-0.980,17.875,-22.875,-1.312
0.220,1.500,-0.440,23.187,-31.125,-15.750
0.220,1.500,-0.440,23.187,-31.125,-15.750
0.720,1.420,-0.270,22.125,-25.750,-23.250
0.720,1.420,-0.270,16.625,-17.562,-22.250
0.860,1.200,0.040,16.625,-17.562,-22.250
0.730,0.460,0.410,9.938,-8.313,-18.125
0.730,0.460,0.410,5.375,3.250,-11.188
0.830,-0.760,0.810,5.375,3.250,-11.188
0.570,-0.720,0.560,1.937,14.750,-4.000
0.570,-0.720,0.560,1.937,14.750,-4.000
0.370,-0.610,0.290,2.375,22.750,0.250
0.370,-0.610,0.290,3.813,26.250,1.750
-0.090,-0.280,-0.270,3.813,26.250,1.750
-0.450,0.740,-1.230,7.937,19.312,-0.437
-0.090,0.860,-1.110,12.250,1.812,-5.937
-0.090,0.860,-1.110,13.188,-13.125,-11.625
0.280,0.660,-0.610,13.188,-13.125,-11.625
0.260,0.320,-0.030,10.188,-15.625,-10.563
0.260,0.320,-0.030,10.188,-15.625,-10.563
0.260,0.160,-0.200,8.750,-9.125,-4.250
0.210,-0.040,-0.180,10.125,-4.000,-0.250
0.220,-0.110,-0.100,9.750,-3.625,1.125
0.220,-0.110,-0.100,9.750,-3.625,1.125
0.420,0.130,0.060,12.250,-5.187,0.437
0.420,0.130,0.060,12.250,-5.187,0.437
0.600,0.170,0.230,13.250,-3.250,-0.625
0.600,0.170,0.230,11.250,5.687,-0.187
0.440,0.230,0.010,11.250,5.687,-0.187
0.080,0.230,-0.150,8.813,12.875,0.750
-0.610,0.080,-0.730,3.688,15.875,1.750
-0.610,0.080,-0.730,3.063,14.188,-0.062
-0.680,0.420,-0.950,3.063,14.188,-0.062
-0.300,0.560,-0.750,3.563,6.375,-5.312
-0.300,0.560,-0.750,3.563,6.375,-5.312
-0.140,0.710,-0.620,3.188,0.375,-10.313
-0.210,0.160,-0.310,3.125,-2.625,-13.625
-0.130,-0.260,-0.120,0.687,-2.750,-12.625
-0.130,-0.260,-0.120,0.687,-2.750,-12.625
-0.010,-0.420,0.150,-3.125,-2.500,-8.563
-0.010,-0.420,0.150,-4.125,-0.312,-4.375
0.020,-0.460,0.400,-4.125,-0.312,-4.375
-0.110,-0.300,0.250,0.062,4.187,-1.750
-0.350,-0.200,-0.150,4.625,10.000,0.625
-0.350,-0.200,-0.150,6.750,14.500,5.000
-0.690,0.030,-0.730,6.750,14.500,5.000
-0.650,0.840,-1.190,6.250,13.188,7.750
-0.650,0.840,-1.190,6.250,13.188,7.750
-0.640,1.070,-1.330,5.437,7.625,5.625
-0.830,1.190,-1.330,1.062,1.437,1.875
-0.830,1.190,-1.330,1.062,1.437,1.875
-0.680,0.930,-0.950,-2.500,-5.312,-2.375
-0.180,0.340,-0.030,-1.875,-11.938,-6.750
-0.180,0.340,-0.030,-1.875,-11.938,-6.750
0.390,-0.140,0.670,0.187,-17.687,-11.000
0.390,-0.140,0.670,2.563,-16.187,-12.563
0.830,-0.660,1.250,2.563,-16.187,-12.563
0.880,-1.120,1.360,4.062,-5.500,-9.000
0.280,-0.780,0.530,4.312,8.563,-1.812
0.280,-0.780,0.530,4.312,8.563,-1.812
-0.030,-0.330,-0.010,5.187,17.625,4.000
-0.030,-0.330,-0.010,5.000,20.250,6.562

-2.640,1.440,1.240,-10.250,21.062,-21.562
-2.640,1.440,1.240,-10.250,21.062,-21.562
-7.370,1.140,1.450,-14.438,33.688,-37.375
-11.200,-1.090,0.480,-21.125,66.000,-64.750
-11.200,-1.090,0.480,-21.125,66.000,-64.750
-17.390,-3.580,-1.870,-28.750,145.062,-106.625
-23.830,-5.000,-5.030,-33.625,246.250,-137.062
-23.830,-5.000,-5.030,-33.625,246.250,-137.062
-28.600,-7.090,-10.360,-36.813,263.250,-114.313
-28.220,-7.810,-11.290,-33.438,164.312,-51.375
-28.220,-7.810,-11.290,-27.875,8.813,5.937
-25.610,-7.060,-10.070,-27.875,8.813,5.937
-18.400,-6.410,-3.580,-18.875,-122.063,26.875
-18.400,-6.410,-3.580,-0.625,-191.750,24.000
-15.580,-6.720,-1.350,-0.625,-191.750,24.000
-13.610,-7.120,-0.650,15.063,-214.250,24.937
-11.120,-7.330,-0.550,22.687,-219.812,39.125
-11.120,-7.330,-0.550,22.687,-219.812,39.125
-11.120,-7.330,-0.550,22.687,-219.812,39.125
-6.250,-7.510,0.460,25.562,-228.875,57.563
-6.250,-7.510,0.460,25.562,-228.875,57.563
-6.250,-7.510,0.460,27.125,-232.437,87.000
-4.880,-6.290,0.360,27.125,-232.437,87.000
-4.410,-4.240,-0.750,23.125,-224.062,115.063
-4.410,-4.240,-0.750,30.875,-224.375,123.438
-4.580,-3.130,-3.540,30.875,-224.375,123.438
0.070,0.230,-5.470,53.438,-250.750,122.125
0.070,0.230,-5.470,44.000,-267.875,130.187
2.240,4.890,-5.190,44.000,-267.875,130.187
4.480,8.660,-4.770,10.375,-269.062,122.625
4.480,8.660,-4.770,-15.438,-259.250,98.688
5.830,8.400,-5.490,-15.438,-259.250,98.688
3.170,1.830,-5.910,-14.438,-298.250,56.875
3.020,-0.750,-5.530,-10.688,-287.000,37.625
3.020,-0.750,-5.530,-10.688,-287.000,37.625
4.000,-2.850,-5.480,-10.500,-253.812,40.625
4.910,-3.540,-3.950,17.187,-218.625,46.750
4.910,-3.540,-3.950,17.187,-218.625,46.750
5.850,-1.500,-2.790,44.188,-155.687,32.500
6.570,0.740,-3.580,77.000,-92.625,4.937
6.570,0.740,-3.580,99.313,-53.125,-10.125
7.510,2.400,-5.750,99.313,-53.125,-10.125
8.210,2.290,-8.210,85.438,-37.125,-6.750
8.210,2.290,-8.210,85.438,-37.125,-6.750
7.020,0.990,-10.510,40.625,-17.937,-4.375
8.250,-0.810,-12.550,-5.500,-1.875,-5.562
8.650,-2.310,-11.910,-31.250,-6.250,20.062
8.650,-2.310,-11.910,-37.000,-44.125,46.188
12.570,-0.210,-4.890,-37.000,-44.125,46.188
15.310,0.970,-1.690,-36.188,-70.750,48.063
15.310,0.970,-1.690,-36.188,-70.750,48.063
14.580,1.430,-0.260,-19.000,-55.313,19.250
14.580,1.430,-0.260,-1.687,-9.938,0.437
13.500,0.510,0.520,-1.687,-9.938,0.437
13.930,-0.850,-0.460,-13.063,45.563,5.062
12.980,0.240,-0.300,-9.500,67.563,22.062
12.980,0.240,-0.300,6.062,43.438,51.813
12.620,1.890,-1.520,6.062,43.438,51.813
12.620,1.890,-1.520,10.500,8.000,81.375
12.460,3.670,-3.260,10.500,8.000,81.375
12.510,5.180,-3.660,-9.875,-20.187,103.250
12.000,4.700,-3.290,-29.750,-39.563,107.188
12.580,4.170,-1.040,-40.625,-48.000,93.250
12.580,4.170,-1.040,-40.625,-48.000,93.250
13.250,3.570,1.490,-49.688,-41.063,77.750
11.770,2.570,3.310,-38.938,-15.313,61.750
11.770,2.570,3.310,-38.938,-15.313,61.750
11.320,1.910,3.000,-8.750,10.688,33.250
11.770,2.000,2.380,15.875,21.625,3.813
11.770,2.000,2.380,35.500,48.375,-24.562
7.820,0.910,-1.380,35.500,48.375,-24.562
8.100,-0.250,-2.360,46.688,30.625,-21.875
8.100,-0.250,-2.360,46.688,30.625,-21.875
7.080,-0.880,-2.690,62.375,-16.937,-40.750
7.080,-0.880,-2.690,57.438,-4.250,-49.063
7.590,-0.200,-2.640,57.438,-4.250,-49.063
8.240,0.730,-1.220,46.063,-18.687,-55.188
7.150,0.250,-2.060,28.437,-12.000,-64.750
7.150,0.250,-2.060,28.437,-12.000,-64.750
6.340,-1.060,-2.630,10.750,2.625,-73.313
6.340,-1.060,-2.630,-1.937,19.250,-72.313
6.880,-1.700,-1.850,-1.937,19.250,-72.313
7.240,-1.530,1.150,-14.125,54.125,-61.938
7.110,-2.000,0.190,-23.937,89.125,-63.688
6.500,-1.400,-1.390,-15.125,107.875,-75.188
6.500,-1.400,-1.390,-15.125,107.875,-75.188
5.860,0.040,-1.960,16.562,107.250,-89.563
5.860,0.040,-1.960,16.562,107.250,-89.563
6.350,1.480,-4.300,54.750,88.875,-112.750
6.350,1.480,-4.300,77.188,64.313,-130.875
6.780,2.720,-5.140,77.188,64.313,-130.875
5.410,2.730,-5.710,54.063,47.313,-113.250
4.450,1.170,-6.000,25.812,18.812,-88.938
4.450,1.170,-6.000,25.812,18.812,-88.938
3.900,0.710,-2.530,-4.875,18.937,-71.125
5.010,-0.750,-1.990,-35.813,66.375,-62.438
5.010,-0.750,-1.990,-35.813,66.375,-62.438
4.620,-1.320,-1.730,-27.750,84.063,-66.563
4.310,-0.630,-2.360,-18.812,92.188,-85.250
2.490,-0.620,-3.930,-9.438,114.188,-109.000
2.490,-0.620,-3.930,10.563,116.063,-130.562
-0.050,-0.390,-6.020,10.563,116.063,-130.562
-1.940,-1.310,-8.200,38.250,84.000,-144.625
-1.940,-1.310,-8.200,38.250,84.000,-144.625
-0.920,-1.390,-6.530,68.563,27.312,-141.437
2.880,-1.610,-3.700,83.313,-37.188,-129.562
2.880,-1.610,-3.700,79.688,-81.000,-96.188
3.160,-2.360,-2.670,79.688,-81.000,-96.188
3.160,-2.360,-2.670,64.813,-94.875,-46.625
1.460,-2.730,-2.860,64.813,-94.875,-46.625
0.180,-3.760,-4.530,47.125,-89.000,-1.125
0.180,-3.760,-4.530,-2.250,-77.125,54.188
-3.270,-1.610,-3.860,-2.250,-77.125,54.188
-5.820,1.110,-2.580,-59.625,-49.875,106.563
-5.570,5.670,0.560,-92.875,-8.000,115.688
-5.570,5.670,0.560,-107.625,46.438,73.125
-2.220,5.630,5.780,-107.625,46.438,73.125
-2.220,5.630,5.780,-106.375,90.938,0.937
-6.830,-0.530,4.070,-106.375,90.938,0.937
-11.860,-11.680,3.390,-39.063,99.875,-75.938
-16.740,-17.170,4.030,17.562,81.313,-79.125
-16.660,-13.790,5.080,-3.125,92.438,0.875
-16.660,-13.790,5.080,-3.125,92.438,0.875
-18.100,-8.510,3.650,-26.812,132.187,88.625
-18.100,-8.510,3.650,-39.313,194.062,121.688
-18.600,-2.810,0.590,-39.313,194.062,121.688
-17.400,2.350,-2.270,-40.625,224.437,96.063
-17.400,2.350,-2.270,-21.500,198.500,66.438
-12.080,5.330,-1.600,-21.500,198.500,66.438
-12.120,2.200,-0.920,-15.938,146.062,49.625
-12.120,2.200,-0.920,-21.562,113.938,20.875
-12.160,-0.040,-0.520,-21.562,113.938,20.875
-6.290,0.710,0.990,-22.937,75.688,4.250
-6.290,0.710,0.990,-22.937,75.688,4.250
-4.990,1.320,1.500,-26.625,53.125,22.562
-4.510,1.330,1.180,-28.625,45.813,43.500
-4.510,1.330,1.180,-25.687,42.250,49.625
-4.020,0.450,1.640,-25.687,42.250,49.625
-3.330,0.000,2.060,-22.625,41.438,48.375
-3.330,0.000,2.060,-22.625,41.438,48.375
-3.270,0.090,1.720,-30.687,43.688,48.063
-4.240,0.150,0.580,-38.000,42.188,46.938
-4.240,0.150,0.580,-38.000,42.188,46.938
-4.560,0.510,0.060,-42.688,37.438,40.750
-3.420,0.100,0.260,-39.375,20.687,26.937
-3.420,0.100,0.260,-30.812,-8.250,6.500
-2.070,-0.120,1.340,-30.812,-8.250,6.500
-0.840,-1.230,2.170,-24.875,-25.250,-18.187
-0.840,-1.230,2.170,-24.875,-25.250,-18.187
-0.580,-2.350,2.810,-18.625,-27.500,-29.187
-0.750,-2.260,2.280,-16.500,-10.438,-18.625
-0.660,-1.590,1.920,-15.625,16.250,-4.937
-0.660,-1.590,1.920,-15.625,16.250,-4.937
-1.110,-0.970,1.320,-11.000,28.437,6.625
-1.110,-0.970,1.320,-11.000,28.437,6.625
-1.400,-0.500,0.590,-1.437,31.687,15.750
-1.400,-0.500,0.590,8.063,27.875,12.500
-1.610,-0.230,-0.270,8.063,27.875,12.500
-0.350,0.350,0.130,17.250,16.312,6.812
-0.060,0.750,-0.390,24.312,6.062,-1.250
-0.060,0.750,-0.390,24.312,6.062,-1.250
0.800,2.100,-1.090,33.125,2.688,-12.250
1.480,2.130,-1.030,38.813,-2.313,-21.812
1.480,2.130,-1.030,38.813,-2.313,-21.812
1.710,1.110,-0.350,30.250,-8.813,-27.687
1.090,0.100,0.060,14.688,-10.250,-26.937
1.000,-0.760,0.640,2.438,-2.563,-20.000
1.000,-0.760,0.640,2.438,-2.563,-20.000
1.110,-0.650,0.730,-3.688,6.750,-11.250
0.990,-0.650,0.220,-1.562,12.500,-5.812
0.990,-0.650,0.220,-1.562,12.500,-5.812
0.020,-0.360,-0.570,2.750,14.063,-1.250
0.110,0.190,-0.790,5.562,7.125,3.500
0.400,0.460,-0.440,5.562,-6.187,6.562
0.400,0.460,-0.440,5.562,-6.187,6.562
0.570,0.720,-0.290,6.562,-15.813,7.500
0.570,0.720,-0.290,10.250,-13.750,5.000
0.840,1.100,-0.410,10.250,-13.750,5.000
0.440,1.590,-1.420,8.750,-5.250,5.437
0.220,1.620,-1.500,5.312,-0.500,5.187
0.220,1.620,-1.500,5.312,-0.500,5.187
0.500,1.340,-1.000,0.687,-1.687,1.062
0.500,1.340,-1.000,-2.688,-3.313,-3.000
0.650,0.990,-0.560,-2.688,-3.313,-3.000
0.850,-0.260,0.130,-3.188,-2.688,-7.125
0.850,-0.260,0.130,-3.875,1.312,-7.875
0.310,-0.770,0.300,-3.875,1.312,-7.875
0.120,-0.960,0.360,-4.312,11.875,-3.125
0.110,-0.550,0.320,-3.125,23.187,2.000
0.110,-0.550,0.320,-3.125,23.187,2.000
-0.070,-0.350,-0.070,-0.812,30.812,2.063
-0.070,-0.350,-0.070,1.875,36.438,-1.375
-0.450,-0.090,-0.480,1.875,36.438,-1.375
-0.630,0.530,-0.830,4.187,35.875,-5.187
-0.420,0.760,-1.200,5.625,30.312,-9.125
-0.420,0.760,-1.200,6.250,18.562,-13.625
-0.470,0.820,-1.050,6.250,18.562,-13.625
0.080,0.760,-0.550,3.875,4.000,-15.438
0.080,0.760,-0.550,-0.437,-5.687,-16.125
0.760,-0.130,0.370,-0.437,-5.687,-16.125
-0.940,-1.150,0.510,-9.063,-6.562,-12.063
-0.710,-1.050,0.330,-13.250,1.687,-0.312
-0.710,-1.050,0.330,-11.813,12.313,10.000
-0.780,-0.880,0.260,-11.813,12.313,10.000
-1.040,-1.000,0.130,-5.875,12.750,13.000
-1.040,-1.000,0.130,-5.875,12.750,13.000
-1.160,-0.760,-0.180,1.187,11.438,13.063
-0.880,-0.560,-0.260,6.187,10.688,16.812
-0.770,0.020,-0.440,10.688,8.313,19.187
-0.770,0.020,-0.440,14.875,7.500,16.375
-0.780,0.700,-0.780,14.875,7.500,16.375
-0.160,1.260,-1.050,13.188,8.500,12.188
-0.160,1.260,-1.050,13.188,8.500,12.188
-0.200,0.860,-0.770,8.500,5.437,7.312
0.050,0.500,-0.330,5.312,0.000,1.062
0.650,-0.360,0.400,3.813,-3.875,-3.875
0.650,-0.360,0.400,4.812,-3.750,-5.625
0.510,-0.350,0.220,4.812,-3.750,-5.625
0.420,-0.050,-0.050,8.063,-1.000,-5.312
0.420,-0.050,-0.050,8.063,-1.000,-5.312
0.550,0.430,-0.090,11.250,2.375,-7.187
0.150,1.130,-0.620,10.000,4.875,-7.062
0.150,1.130,-0.620,10.000,4.875,-7.062
-0.060,1.170,-0.690,7.500,6.687,-6.312
-0.210,1.070,-0.630,5.375,6.375,-6.812
-0.210,1.070,-0.630,-2.938,2.688,-8.250
-0.400,0.660,-0.560,-2.938,2.688,-8.250
-0.090,-0.150,0.220,-2.938,2.688,-8.250
-0.090,-0.150,0.220,-6.437,1.000,-7.000
0.050,-0.850,0.600,-6.437,1.000,-7.000
-0.360,-1.010,0.560,-6.687,2.063,-4.187
-0.640,-0.890,0.360,-3.875,7.687,9.750
-0.640,-0.890,0.360,-3.875,7.687,9.750
-0.930,-0.440,-0.310,-0.625,9.063,13.500
-0.930,-0.440,-0.310,-0.625,9.063,13.500
-1.230,0.090,-0.810,-0.625,9.063,13.500
-0.940,0.470,-1.080,9.750,-1.312,4.000
-0.940,0.470,-1.080,9.438,-8.313,-2.813
-0.420,0.950,-0.980,9.438,-8.313,-2.813
0.000,1.260,-0.670,6.125,-10.125,-7.437
0.000,1.260,-0.670,2.313,-6.687,-10.688
0.240,0.870,-0.240,2.313,-6.687,-10.688
0.380,0.020,0.290,-1.625,-0.875,-10.625
0.380,0.020,0.290,-3.000,7.062,-7.937
0.130,-0.430,0.470,-3.000,7.062,-7.937
0.150,-0.620,0.500,-2.000,11.063,-4.500
0.080,-0.450,0.400,0.000,13.313,-1.125
0.080,-0.450,0.400,3.375,14.313,1.687
-0.130,-0.550,-0.110,3.375,14.313,1.687
-0.280,0.400,-0.610,6.875,9.063,2.875

-3.500,-1.360,2.290,-21.500,53.813,-14.813
-3.500,-1.360,2.290,-26.562,84.563,-13.188
-6.500,-2.050,0.820,-26.562,84.563,-13.188
-9.920,-1.580,-1.010,-28.437,107.000,-10.188
-9.920,-1.580,-1.010,-28.437,107.000,-10.188
-12.320,-0.570,-2.060,-25.812,109.375,-10.250
-13.980,0.490,-2.610,-23.125,88.563,-12.750
-13.980,0.490,-2.610,-23.125,88.563,-12.750
-13.600,0.590,-1.820,-24.312,51.500,-12.313
-13.410,-0.120,-1.330,-24.062,16.875,-10.750
-13.410,-0.120,-1.330,-21.875,-4.937,-7.562
-13.750,-1.220,-1.240,-21.875,-4.937,-7.562
-13.690,-2.950,-0.830,-19.500,-17.875,-1.062
-13.690,-2.950,-0.830,-19.500,-17.875,-1.062
-12.570,-3.800,-0.510,-14.000,-32.813,7.625
-11.880,-3.810,-0.220,-12.125,-53.250,24.312
-11.020,-3.450,-0.290,-8.563,-68.313,41.125
-11.020,-3.450,-0.290,-4.187,-79.875,58.438
-8.180,-3.130,-0.100,-4.187,-79.875,58.438
-7.350,-1.330,-0.810,-7.812,-88.063,70.875
-7.350,-1.330,-0.810,-7.812,-88.063,70.875
-5.910,1.200,-1.240,-9.563,-93.813,62.563
-4.550,2.990,-2.910,-16.875,-89.500,41.875
-4.340,2.330,-3.750,-37.063,-89.375,21.625
-4.340,2.330,-3.750,-57.875,-106.000,5.750
-5.180,1.030,-3.930,-57.875,-106.000,5.750
-5.190,-1.290,-3.770,-62.813,-126.063,-1.812
-5.190,-1.290,-3.770,-62.813,-126.063,-1.812
-3.730,-5.030,-2.630,-48.250,-145.687,1.937
-2.560,-4.860,-1.100,-14.875,-164.375,12.688
-1.580,-3.450,0.010,19.812,-173.250,18.500
-1.580,-3.450,0.010,19.812,-173.250,18.500
-0.860,-1.230,0.690,51.250,-166.437,12.750
-0.860,-1.230,0.690,68.250,-140.937,-2.938
-0.910,1.350,-0.270,68.250,-140.937,-2.938
-1.760,0.980,-3.010,70.375,-110.438,-20.500
-1.760,0.980,-3.010,58.438,-117.063,-28.375
-3.440,-0.270,-5.770,58.438,-117.063,-28.375
-2.680,-1.470,-6.640,45.375,-164.125,-31.062
-0.200,0.350,-5.180,28.062,-166.125,-17.687
-0.200,0.350,-5.180,28.062,-166.125,-17.687
-0.360,4.250,-4.550,-2.500,-129.625,6.062
-0.360,4.250,-4.550,-17.812,-103.500,10.938
-0.260,6.850,-4.030,-17.812,-103.500,10.938
-1.230,6.290,-3.820,-14.938,-80.813,-9.313
-1.050,-0.220,-3.340,-5.562,-64.813,-26.812
-1.050,-0.220,-3.340,20.500,-61.000,-34.688
0.270,-4.510,-1.800,20.500,-61.000,-34.688
3.060,-6.070,0.760,35.375,-63.250,-25.875
3.060,-6.070,0.760,3.125,-21.625,17.875
6.320,-5.370,1.430,3.125,-21.625,17.875
12.760,-1.100,1.360,-38.875,43.688,67.875
11.700,1.870,-0.540,-52.563,66.813,103.375
11.700,1.870,-0.540,-52.563,66.813,103.375
10.050,2.680,-4.280,-47.188,53.313,137.250
9.100,3.260,-8.110,-43.313,6.375,155.875
9.100,3.260,-8.110,-43.313,6.375,155.875
11.540,3.250,-4.890,-35.500,-66.875,133.875
14.130,1.680,-1.540,-15.438,-118.188,87.875
14.130,1.680,-1.540,-5.750,-113.875,57.938
14.690,-0.220,1.080,-5.750,-113.875,57.938
14.690,-0.220,1.080,-5.750,-113.875,57.938
14.270,-2.000,1.210,-13.750,-81.625,52.938
14.270,-2.000,1.210,-26.187,-55.625,71.125
14.220,-1.720,0.050,-26.187,-55.625,71.125
13.810,-1.020,-1.330,-17.437,-40.563,86.688
13.410,-0.230,-3.050,6.812,-38.000,86.688
13.410,-0.230,-3.050,30.937,-48.250,75.125
12.080,0.660,-6.020,30.937,-48.250,75.125
12.230,1.200,-5.890,45.125,-62.375,65.000
12.230,1.200,-5.890,45.125,-62.375,65.000
13.470,2.310,-3.720,53.938,-77.125,55.000
15.210,3.380,-1.550,53.188,-73.500,38.813
15.600,4.490,-0.480,42.438,-42.563,13.313
15.600,4.490,-0.480,42.438,-42.563,13.313
12.990,4.350,-0.810,20.250,22.687,-6.812
11.730,2.980,-2.510,3.313,67.125,-35.250
11.730,2.980,-2.510,3.313,67.125,-35.250
9.550,1.270,-3.250,8.063,49.688,-61.000
9.550,1.270,-3.250,18.812,17.687,-72.688
8.510,-0.510,-2.320,18.812,17.687,-72.688
8.160,-1.780,-2.020,19.812,-10.375,-57.625
5.810,-1.810,-2.350,4.312,6.687,-12.063
5.810,-1.810,-2.350,-11.563,-15.375,8.125
6.240,-3.770,-2.680,-11.563,-15.375,8.125
6.220,-2.520,-0.670,3.875,-60.563,-18.750
6.220,-2.520,-0.670,3.875,-60.563,-18.750
7.540,-1.620,-0.220,13.188,-68.313,-29.562
6.860,-1.770,0.150,17.750,-37.188,-39.188
4.110,-0.420,-0.120,15.875,4.750,-53.875
4.110,-0.420,-0.120,15.875,4.750,-53.875
4.070,-0.440,-0.180,32.563,38.188,-76.750
4.070,-0.440,-0.180,32.563,38.188,-76.750
4.430,0.000,-0.260,68.563,59.688,-102.750
3.950,1.110,-1.610,98.500,74.438,-124.625
3.950,1.110,-1.610,115.563,77.125,-148.250
2.810,2.240,-5.700,115.563,77.125,-148.250
3.280,2.660,-6.650,113.438,59.875,-164.062
4.150,2.440,-6.280,89.438,33.438,-170.062
4.150,2.440,-6.280,89.438,33.438,-170.062
5.380,1.550,-4.270,49.625,16.562,-161.750
5.380,1.550,-4.270,49.625,16.562,-161.750
4.410,0.460,-0.140,6.375,18.062,-142.250
4.180,0.590,1.540,-15.750,36.688,-126.750
3.530,0.630,1.420,-17.250,69.438,-112.750
3.530,0.630,1.420,-17.250,69.438,-112.750
3.050,0.970,0.010,-5.875,96.063,-84.000
3.050,0.970,0.010,-5.875,96.063,-84.000
1.420,2.830,-6.140,-6.500,113.438,-49.375
-0.190,2.670,-8.100,-23.000,130.812,-50.375
-0.190,2.670,-8.100,-41.000,124.125,-65.938
-0.410,1.790,-9.470,-41.000,124.125,-65.938
-1.830,-1.300,-7.810,-34.000,70.250,-85.813
-1.830,-1.300,-7.810,-11.750,22.187,-107.313
-1.460,-2.050,-5.800,-11.750,22.187,-107.313
-0.090,-1.300,-2.660,8.688,-12.188,-120.188
-0.090,-1.300,-2.660,19.562,-28.812,-130.625
0.680,-1.730,-0.500,19.562,-28.812,-130.625
-1.440,-3.780,0.290,3.125,-20.312,-133.625
-3.470,-3.960,-0.540,-42.000,0.062,-106.250
-3.470,-3.960,-0.540,-82.063,40.875,-56.625
-4.870,-4.940,-1.870,-82.063,40.875,-56.625
-5.920,-5.770,-2.530,-94.688,87.500,-15.188
-5.920,-5.770,-2.530,-94.688,87.500,-15.188
-8.700,-4.250,-5.680,-98.313,118.000,23.062
-10.060,-2.040,-7.450,-81.250,120.125,56.188
-7.720,0.150,-7.340,-36.063,72.313,52.313
-7.720,0.150,-7.340,-36.063,72.313,52.313
-4.980,1.120,-3.390,-8.875,6.062,36.625
-1.810,-2.240,5.600,-32.938,-29.750,28.187
-1.810,-2.240,5.600,-32.938,-29.750,28.187
-2.090,-4.240,8.940,-70.000,-14.063,31.437
-3.890,-8.270,10.680,-104.313,50.750,31.250
-8.340,-12.310,8.990,-124.313,123.500,52.563
-8.340,-12.310,8.990,-124.313,123.500,52.563
-17.980,-9.340,1.770,-119.125,193.500,102.688
-17.530,-4.640,-0.550,-74.563,196.062,144.375
-17.530,-4.640,-0.550,-74.563,196.062,144.375
-14.730,-0.480,-1.670,-14.750,142.937,114.875
-12.020,2.660,-1.410,19.500,94.125,37.063
-9.370,4.650,-0.780,23.250,57.313,-21.187
-9.370,4.650,-0.780,23.250,57.313,-21.187
-8.310,3.080,0.240,13.688,28.312,-36.188
-7.440,0.680,1.230,-11.063,21.250,-21.500
-7.440,0.680,1.230,-11.063,21.250,-21.500
-5.410,-0.900,3.050,-45.938,23.125,23.187
-5.760,-2.650,2.410,-62.563,43.250,34.250
-6.460,-3.070,0.680,-55.250,61.375,34.125
-6.460,-3.070,0.680,-55.250,61.375,34.125
-7.050,-3.020,-0.130,-30.812,32.188,32.688
-7.050,-3.020,-0.130,-15.938,0.875,31.062
-3.290,-0.070,0.950,-15.938,0.875,31.062
-1.980,1.010,1.020,-13.000,-6.437,28.812
-1.430,1.670,0.750,-10.750,-14.438,18.500
-0.900,2.190,0.660,-14.375,-21.562,6.500
-0.900,2.190,0.660,-14.375,-21.562,6.500
1.110,1.860,1.470,-22.562,-23.812,0.062
1.110,1.860,1.470,-22.562,-23.812,0.062
1.760,0.690,2.140,-28.312,-26.125,-4.812
1.760,0.690,2.140,-30.187,-12.438,-8.188
1.020,-0.660,2.280,-30.187,-12.438,-8.188
0.090,-1.750,1.650,-24.875,8.375,-2.188
-0.290,-0.670,0.260,-13.438,15.938,6.187
-0.290,-0.670,0.260,-13.438,15.938,6.187
-0.110,0.000,0.170,-6.312,14.750,9.938
0.570,0.510,0.150,-1.437,12.688,8.313
0.570,0.510,0.150,5.812,9.813,3.188
1.170,0.870,0.380,5.812,9.813,3.188
1.290,0.730,0.670,12.438,5.875,-6.500
1.290,0.730,0.670,10.188,9.500,-11.875
0.600,0.580,0.300,10.188,9.500,-11.875
0.150,0.520,0.200,-1.562,16.187,-4.750
0.150,0.520,0.200,-1.562,16.187,-4.750
0.150,-0.280,0.150,-11.875,19.000,7.687
0.150,-0.280,0.150,-15.063,18.687,14.000
0.020,-0.710,0.200,-15.063,18.687,14.000
-0.230,-1.050,-0.020,-15.438,15.875,16.687
-0.360,-0.920,0.000,-8.500,5.312,18.500
-0.360,-0.920,0.000,-8.500,5.312,18.500
-0.250,-0.450,0.390,-1.625,-4.000,18.062
-0.150,-0.410,0.550,3.750,-2.625,15.563
-0.150,-0.410,0.550,3.750,-2.625,15.563
-0.080,-0.660,0.580,9.625,1.062,11.875
-0.260,-0.370,0.180,16.812,3.000,9.875
-0.460,0.890,-0.870,18.937,2.188,11.000
-0.460,0.890,-0.870,16.562,0.625,11.000
-0.500,1.300,-1.230,16.562,0.625,11.000
-0.540,1.380,-1.390,10.750,0.812,9.375
-0.540,1.380,-1.390,10.750,0.812,9.375
-0.420,1.400,-1.270,7.312,5.500,5.437
0.330,0.820,-0.560,3.563,9.063,0.437
0.330,0.820,-0.560,-1.187,10.813,-2.875
0.550,0.600,-0.170,-1.187,10.813,-2.875
0.430,0.260,-0.040,-3.875,14.188,-6.312
0.430,0.260,-0.040,-3.875,14.188,-6.312
-0.020,-0.140,-0.250,-2.875,19.812,-8.313
-0.600,-0.840,-0.720,-1.125,22.187,-6.500
-0.600,-0.840,-0.720,-1.125,22.187,-6.500
-0.790,-0.650,-0.710,0.500,19.125,-1.125
-0.810,-0.350,-0.820,1.500,12.813,4.125
-0.810,-0.350,-0.820,4.625,6.250,5.687
-0.550,0.520,-1.090,4.625,6.250,5.687
0.020,0.910,-0.760,7.750,-1.687,3.875
0.020,0.910,-0.760,6.750,-8.625,3.000
0.450,1.150,-0.480,6.750,-8.625,3.000
0.560,1.120,-0.320,4.875,-10.125,0.687
0.480,0.790,-0.230,4.125,-6.250,-4.937
0.480,0.790,-0.230,4.125,-6.250,-4.937
0.330,0.620,-0.050,1.687,-0.375,-8.438
0.330,0.620,-0.050,-3.375,5.500,-8.438
0.280,0.310,-0.010,-3.375,5.500,-8.438
0.050,0.110,-0.090,-6.875,12.500,-7.000
0.050,0.110,-0.090,-6.437,17.187,-7.187
-0.140,-0.250,-0.370,-6.437,17.187,-7.187
-0.680,-0.590,-0.740,-4.375,15.750,-7.562
-1.030,-0.340,-0.760,-3.438,11.125,-6.000
-1.030,-0.340,-0.760,-3.438,11.125,-6.000
-0.580,-0.140,-0.290,-2.938,5.125,-4.187
-0.580,-0.140,-0.290,0.687,0.687,-4.062
-0.210,-0.440,-0.040,0.687,0.687,-4.062
-0.320,-0.440,0.380,1.812,-3.063,-2.625
-0.250,-0.540,0.440,-2.125,-1.875,3.063
-0.250,-0.540,0.440,0.187,1.062,7.250
-0.250,-0.570,0.340,0.187,1.062,7.250
-0.610,-0.400,-0.480,4.750,2.813,7.500
-0.610,-0.400,-0.480,4.750,2.813,7.500
-0.980,-0.040,-0.940,9.750,2.938,5.812
-0.780,0.600,-0.620,7.812,-1.187,7.062
-0.290,0.680,-0.360,4.812,-1.875,8.938
-0.290,0.680,-0.360,4.812,-1.875,8.938
-0.020,0.200,-0.010,5.687,-0.562,6.750
-0.020,0.200,-0.010,5.687,-0.562,6.750
-0.160,-0.040,-0.340,8.813,-0.687,1.937
-0.160,-0.040,-0.340,10.188,-4.250,-2.250
-0.270,0.080,-0.460,10.188,-4.250,-2.250
0.350,0.420,0.100,7.312,-6.312,-0.750
0.260,0.330,0.170,4.375,-2.125,5.062
0.260,0.330,0.170,4.375,-2.125,5.062
0.210,0.140,0.130,4.625,4.750,8.063
0.210,0.140,0.130,1.750,10.750,8.500
0.210,-0.010,-0.020,1.750,10.750,8.500
-0.450,0.320,-0.480,-1.437,12.875,9.313
-0.770,0.740,-1.000,-5.812,14.000,11.125
-0.770,0.740,-1.000,-6.500,13.313,10.500
-0.810,0.930,-1.220,-6.500,13.313,10.500
-0.760,0.780,-1.100,-3.125,4.250,5.812
-0.760,0.780,-1.100,-3.125,4.250,5.812
-0.160,0.290,-0.490,1.250,-9.813,0.625
0.200,0.200,-0.010,5.687,-16.312,-8.563
0.610,-0.010,0.500,8.750,-19.000,-15.625

-1.070,1.670,-2.040,5.250,27.312,12.563
-1.070,1.670,-2.040,5.250,27.312,12.563
-0.650,1.820,-1.770,7.187,18.187,9.250
-0.230,1.310,-1.210,6.187,2.188,1.125
-0.230,1.310,-1.210,6.187,2.188,1.125
0.380,0.000,0.410,4.375,-15.250,-6.437
0.830,-0.960,1.190,3.125,-25.187,-10.438
0.680,-1.310,1.260,2.000,-23.500,-7.812
0.680,-1.310,1.260,2.000,-23.500,-7.812
0.290,-1.160,0.700,1.375,-10.938,-1.187
0.290,-1.160,0.700,0.375,3.750,5.375
-0.290,0.140,-0.540,0.375,3.750,5.375
-0.490,0.550,-0.980,-2.188,14.688,11.250
-0.680,0.970,-1.150,-3.188,19.875,13.875
-0.700,1.270,-1.330,-2.000,21.312,11.000
-0.700,1.270,-1.330,2.000,15.188,1.875
-0.260,1.020,-0.880,2.000,15.188,1.875
0.000,0.500,-0.390,4.687,2.938,-7.500
0.000,0.500,-0.390,4.687,2.938,-7.500
0.090,0.220,-0.090,4.750,-8.250,-12.813
0.410,-0.180,0.400,2.813,-13.188,-12.875
0.410,-0.180,0.400,2.500,-12.313,-10.688
0.470,-0.850,0.620,2.500,-12.313,-10.688
0.210,-0.870,0.350,3.313,-7.750,-7.187
0.210,-0.870,0.350,3.313,-7.750,-7.187
-0.160,-0.580,-0.050,2.688,0.187,-2.688
-0.160,-0.580,-0.050,2.688,0.187,-2.688
-0.370,-0.070,-0.310,-0.187,9.000,2.938
-0.370,-0.070,-0.310,-0.187,9.000,2.938
-0.540,0.350,-0.680,-1.125,14.688,6.125
-0.590,0.580,-0.690,-1.625,14.000,5.625
-0.590,0.580,-0.690,-1.125,9.750,2.000
-0.620,0.560,-0.740,-1.125,9.750,2.000
-0.660,0.360,-0.560,0.187,1.000,-2.125
-0.660,0.360,-0.560,1.125,-7.750,-6.000
-0.560,-0.430,-0.120,1.125,-7.750,-6.000
-0.270,-0.630,0.360,4.250,-15.000,-9.938
0.020,-0.950,0.890,7.625,-20.562,-12.313
0.020,-0.950,0.890,7.625,-20.562,-12.313
-0.580,-1.400,1.060,9.813,-19.500,-11.000
-0.960,-0.980,1.060,8.438,-8.563,-6.187
-0.960,-0.980,1.060,8.438,-8.563,-6.187
-0.920,-0.940,1.760,4.187,5.687,-0.062
-1.160,-1.290,2.130,-1.062,18.937,4.812
-2.570,-1.540,0.880,-3.750,34.625,10.813
-2.570,-1.540,0.880,-3.313,44.563,19.125
-3.140,-1.510,0.100,-3.313,44.563,19.125
-3.150,-0.560,-0.480,-0.937,40.938,34.500
-3.150,-0.560,-0.480,-0.937,40.938,34.500
-2.200,0.180,-0.880,4.687,29.625,48.000
-2.200,0.180,-0.880,13.500,14.875,54.625
-0.480,2.520,-1.810,13.500,14.875,54.625
0.230,3.540,-2.570,16.750,2.500,53.750
0.230,3.540,-2.570,13.125,-6.000,45.250
0.290,4.410,-2.780,13.125,-6.000,45.250
0.340,4.320,-2.530,2.625,-14.188,36.250
0.340,4.320,-2.530,-7.812,-20.500,28.687
1.200,2.270,-1.630,-7.812,-20.500,28.687
0.900,1.470,-0.930,-6.312,-27.750,19.437
1.430,0.900,-0.020,2.938,-39.750,4.625
1.430,0.900,-0.020,2.938,-39.750,4.625
2.090,-0.450,1.580,10.750,-47.750,-10.875
-0.580,-1.670,2.030,10.875,-37.063,-13.063
-0.580,-1.670,2.030,10.875,-37.063,-13.063
-2.200,-1.050,1.170,-0.062,-12.188,-3.250
-3.630,-0.550,0.500,-3.813,9.438,2.188
-7.250,-0.090,-1.290,1.625,19.375,-0.687
-7.250,-0.090,-1.290,5.875,24.000,-7.375
-9.160,-0.040,-2.420,5.875,24.000,-7.375
-10.740,-0.050,-2.550,7.750,27.562,-14.750
-10.740,-0.050,-2.550,7.750,27.562,-14.750
-11.680,-0.290,-2.230,5.437,24.000,-24.937
-14.120,-0.660,-0.770,2.563,15.375,-36.688
-14.590,-0.970,0.440,1.437,10.563,-49.500
-14.590,-0.970,0.440,1.437,10.563,-49.500
-15.010,-1.900,1.020,-34.000,32.063,-63.188
-15.010,-1.900,1.020,-34.000,32.063,-63.188
-15.470,-3.340,0.860,-34.000,32.063,-63.188
-15.180,-6.520,-0.730,-70.813,35.000,-17.125
-13.880,-8.590,-0.440,-52.063,6.687,17.125
-13.880,-8.590,-0.440,-15.500,-27.125,43.875
-13.260,-9.910,0.050,-15.500,-27.125,43.875
-12.400,-10.400,-0.260,26.937,-59.875,55.500
-12.400,-10.400,-0.260,26.937,-59.875,55.500
-8.280,-10.500,-0.680,71.813,-100.188,66.688
-8.280,-10.500,-0.680,113.500,-122.813,86.125
-5.120,-8.600,-2.250,113.500,-122.813,86.125
-2.310,-4.620,-2.350,123.188,-143.875,100.563
-2.310,-4.620,-2.350,123.188,-143.875,100.563
0.250,0.620,-3.410,86.750,-152.312,93.875
0.250,0.620,-3.410,46.063,-139.437,72.625
-1.570,10.860,-6.700,46.063,-139.437,72.625
-1.220,12.160,-6.740,6.125,-130.187,22.625
-1.220,12.160,-6.740,-16.312,-148.375,-50.313
-2.370,10.160,-6.360,-16.312,-148.375,-50.313
-1.820,0.300,-1.870,-28.125,-178.875,-102.813
-1.050,-5.560,0.530,-27.312,-204.687,-103.125
-1.050,-5.560,0.530,5.125,-285.625,-47.875
4.710,-9.050,5.120,5.125,-285.625,-47.875
5.000,-8.820,11.060,0.250,-255.500,14.438
5.000,-8.820,11.060,0.250,-255.500,14.438
6.870,-0.940,9.070,0.750,-130.312,46.375
3.060,2.740,3.620,36.313,-15.063,54.813
-1.060,6.070,-3.440,46.563,30.687,31.250
-1.060,6.070,-3.440,46.563,30.687,31.250
-4.150,8.370,-10.960,46.125,48.250,-6.000
-4.150,8.370,-10.960,46.125,48.250,-6.000
-7.440,6.190,-19.220,54.750,0.687,-49.688
-4.750,1.560,-18.530,48.188,-116.438,-88.438
-4.750,1.560,-18.530,48.188,-116.438,-88.438
-0.380,-0.220,-13.000,25.125,-223.125,-91.875
7.990,1.070,-5.860,1.500,-264.375,-62.188
7.990,1.070,-5.860,1.500,-264.375,-62.188
10.110,0.800,5.360,-6.000,-235.437,3.375
9.500,-2.400,5.750,-32.063,-158.875,65.813
9.500,-2.400,5.750,-32.063,-158.875,65.813
9.250,-3.920,4.180,-74.125,-61.188,141.000
8.640,-3.440,2.870,-94.313,6.812,189.000
8.640,-3.440,2.870,-73.813,23.812,187.250
8.930,-1.610,-2.080,-73.813,23.812,187.250
8.310,-0.180,-5.140,-16.500,3.938,160.125
8.310,-0.180,-5.140,-16.500,3.938,160.125
9.310,1.390,-6.920,43.688,-41.563,108.938
9.310,1.390,-6.920,90.688,-63.563,57.188
9.930,2.790,-7.660,90.688,-63.563,57.188
9.820,3.130,-8.660,90.438,-62.313,26.437
9.130,2.610,-8.320,48.750,-62.188,10.188
9.130,2.610,-8.320,48.750,-62.188,10.188
9.460,2.230,-7.170,1.625,-59.438,10.250
9.460,2.230,-7.170,1.625,-59.438,10.250
9.870,-0.610,-4.200,-26.250,-55.375,31.062
9.900,-1.260,-3.100,-35.500,-49.750,53.688
9.820,-1.110,-1.920,-26.125,-48.063,64.063
9.820,-1.110,-1.920,-18.000,-47.688,63.063
10.130,-0.860,-0.770,-18.000,-47.688,63.063
11.350,-0.800,0.640,-12.438,-41.813,59.500
11.350,-0.800,0.640,-12.438,-41.813,59.500
11.230,-0.730,0.520,-3.438,-33.500,50.750
11.230,-0.730,0.520,15.438,-22.000,35.563
10.490,-0.180,-0.390,15.438,-22.000,35.563
10.130,1.350,-1.940,34.375,-20.375,11.500
11.180,4.430,-2.830,40.125,-16.625,-9.125
11.180,4.430,-2.830,32.125,-4.062,-21.812
12.280,4.380,-1.830,32.125,-4.062,-21.812
11.920,4.020,-0.030,35.000,-10.125,-29.187
11.920,4.020,-0.030,38.563,12.313,-34.688
13.100,2.870,0.800,38.563,12.313,-34.688
10.020,-0.330,-1.770,29.312,40.188,-16.125
10.560,-1.640,-1.860,32.063,-22.687,-22.187
10.560,-1.640,-1.860,32.063,-22.687,-22.187
7.820,-2.000,-1.670,27.812,32.563,-31.187
7.820,-2.000,-1.670,26.437,59.250,-25.187
8.140,-2.140,-4.070,26.437,59.250,-25.187
6.830,0.070,-4.980,34.375,41.750,-20.000
7.750,0.640,-4.630,57.750,15.188,-37.938
7.750,0.640,-4.630,71.813,-0.187,-62.125
8.260,1.410,-3.500,71.813,-0.187,-62.125
7.490,1.040,-2.340,72.625,16.000,-83.438
7.490,1.040,-2.340,72.625,16.000,-83.438
6.250,0.760,-2.500,66.188,42.563,-99.875
6.050,0.650,-2.150,39.438,60.125,-96.875
6.050,0.650,-2.150,39.438,60.125,-96.875
5.460,0.540,-2.030,-4.875,72.250,-66.813
4.430,1.770,-2.880,-41.250,82.375,-16.375
4.430,1.770,-2.880,-41.250,82.375,-16.375
6.560,2.100,-2.280,-62.875,83.750,14.938
6.560,2.100,-2.280,-62.875,83.750,14.938
6.740,2.370,-2.300,-76.375,114.625,25.625
5.460,2.650,-3.140,-66.250,151.125,6.312
1.900,1.330,-4.460,-30.312,137.625,-36.438
1.900,1.330,-4.460,-9.625,106.813,-66.875
0.120,3.580,-4.270,-9.625,106.813,-66.875
0.000,4.040,-4.500,16.437,93.188,-100.875
0.000,4.040,-4.500,16.437,93.188,-100.875
0.310,3.110,-4.630,36.813,75.375,-131.312
0.310,3.110,-4.630,34.625,58.000,-146.562
-0.530,0.290,-5.530,34.625,58.000,-146.562
-1.240,-2.180,-5.470,10.250,44.938,-133.375
-2.830,-4.530,-6.110,-27.562,39.188,-94.188
-2.830,-4.530,-6.110,-51.375,35.063,-42.875
-4.650,-6.260,-6.320,-51.375,35.063,-42.875
-6.500,-5.520,-5.520,-65.063,27.625,17.937
-6.500,-5.520,-5.520,-65.063,27.625,17.937
-7.180,-3.410,-5.630,-66.188,19.812,70.188
-7.140,-1.380,-4.770,-54.813,11.563,92.500
-5.490,0.160,-1.380,-57.438,21.562,101.813
-5.490,0.160,-1.380,-57.438,21.562,101.813
-4.440,0.090,0.200,-68.688,48.313,109.125
-3.900,-0.090,1.500,-77.375,85.438,118.313
-3.900,-0.090,1.500,-77.375,85.438,118.313
-5.080,-0.640,0.970,-79.188,129.437,118.375
-7.940,-1.470,-3.350,-66.813,141.562,102.563
-8.650,1.480,-3.320,-44.500,107.250,70.188
-8.650,1.480,-3.320,-44.500,107.250,70.188
-4.900,3.080,-0.090,-29.937,39.375,3.000
-1.150,1.820,3.150,-21.312,-0.750,-71.125
-1.150,1.820,3.150,-21.312,-0.750,-71.125
-4.260,-4.650,5.240,-28.312,25.000,-83.688
-9.700,-8.440,3.480,-46.500,97.250,-62.000
-9.700,-8.440,3.480,-67.813,160.062,-27.500
-12.900,-8.690,2.650,-67.813,160.062,-27.500
-12.900,-8.690,2.650,-80.500,198.250,-0.687
-13.060,-7.000,2.230,-80.500,198.250,-0.687
-10.980,-1.110,0.320,-61.063,192.312,0.875
-10.980,-1.110,0.320,-23.187,135.312,-21.187
-10.760,-0.040,0.450,-23.187,135.312,-21.187
-10.060,0.960,0.670,-5.125,80.063,-39.250
-8.690,1.330,0.860,-1.375,38.750,-26.250
-8.690,1.330,0.860,-4.000,28.875,-25.437
-7.730,-0.270,1.550,-4.000,28.875,-25.437
-7.570,0.010,1.060,-19.187,41.313,-21.187
-7.570,0.010,1.060,-19.187,41.313,-21.187
-7.530,0.010,0.200,-32.250,21.375,-6.750
-8.220,0.200,0.220,-29.062,3.125,-1.437
-8.220,0.200,0.220,-27.437,-2.563,-8.375
-6.830,0.100,0.790,-27.437,-2.563,-8.375
-6.010,-0.210,1.010,-30.062,-11.750,-10.000
-6.010,-0.210,1.010,-30.062,-11.750,-10.000
-5.840,-0.350,1.210,-34.625,-20.187,0.062
-5.250,0.320,0.880,-33.000,-22.875,7.375
-4.080,0.520,1.130,-22.125,-31.437,-9.750
-4.080,0.520,1.130,-12.125,-36.750,-33.875
-2.870,-0.130,1.680,-12.125,-36.750,-33.875
-1.640,-1.060,2.320,-10.000,-27.250,-45.938
-1.640,-1.060,2.320,-10.000,-27.250,-45.938
-1.060,-2.280,3.060,-17.125,-6.750,-37.688
-1.720,-1.730,2.540,-22.312,17.500,-14.063
-1.300,-0.980,2.310,-20.312,32.125,2.438
-1.300,-0.980,2.310,-15.750,44.563,6.125
-0.750,-0.220,1.400,-15.750,44.563,6.125
-1.540,0.240,-0.450,-6.687,56.188,5.000
-1.540,0.240,-0.450,-6.687,56.188,5.000
-1.520,0.090,-1.000,-2.188,48.188,1.875
-1.520,0.090,-1.000,-2.188,48.188,1.875
-0.720,0.090,-0.540,-0.500,22.687,-1.250
0.660,0.160,0.440,1.875,-1.375,-4.062
1.760,0.230,0.710,7.875,-10.063,-9.938
1.760,0.230,0.710,7.875,-10.063,-9.938
1.740,0.500,0.460,9.688,-13.125,-13.188
1.740,0.500,0.460,9.688,-13.125,-13.188
1.270,0.270,0.040,5.187,-8.250,-9.875
0.820,0.120,0.050,-5.062,2.063,1.562
0.820,0.120,0.050,-5.062,2.063,1.562
-0.300,0.000,-0.620,-9.688,10.563,11.313
-0.690,0.040,-0.680,-7.875,6.062,12.063
-0.690,0.040,-0.680,-4.187,-2.875,11.375
-0.680,0.240,-0.850,-4.187,-2.875,11.375
0.370,0.590,-0.700,0.375,-11.375,9.563
0.370,0.590,-0.700,0.750,-17.312,8.688
0.590,0.370,-0.530,0.750,-17.312,8.688

-1.530,1.700,-1.830,7.000,22.750,21.125
-1.530,1.700,-1.830,7.000,22.750,21.125
-0.540,1.290,-1.360,8.063,6.250,8.188
-0.540,1.290,-1.360,5.250,-10.688,-4.750
-0.280,0.980,-0.720,5.250,-10.688,-4.750
0.350,0.590,-0.220,2.688,-17.500,-11.875
1.060,0.060,0.510,3.875,-19.562,-15.625
1.160,-1.010,1.010,5.250,-13.563,-15.125
1.160,-1.010,1.010,5.250,-13.563,-15.125
0.380,-0.950,0.360,4.562,0.437,-10.250
0.380,-0.950,0.360,4.562,0.437,-10.250
-0.640,-0.280,-0.430,2.813,14.438,-3.750
-0.640,-0.280,-0.430,1.562,21.875,0.687
-0.830,0.320,-0.720,1.562,21.875,0.687
-1.300,1.260,-1.480,1.062,21.062,3.688
-1.230,1.170,-1.170,-0.562,12.625,1.875
-1.230,1.170,-1.170,-0.562,12.625,1.875
-0.810,0.720,-0.630,-3.688,0.750,-1.500
-0.810,0.720,-0.630,-3.688,0.750,-1.500
-0.730,0.370,-0.220,-3.625,-7.500,-4.500
0.260,-0.420,0.710,-1.125,-14.688,-7.312
0.260,-0.420,0.710,-1.125,-14.688,-7.312
0.390,-0.740,0.990,0.500,-17.937,-5.875
0.330,-0.970,0.930,2.938,-13.000,-2.000
0.330,-0.970,0.930,2.938,-13.000,-2.000
0.280,-1.040,0.840,6.625,-1.812,0.812
-0.110,-0.020,-0.130,9.750,8.813,3.813
-0.110,-0.020,-0.130,9.750,8.813,3.813
-0.190,0.540,-0.460,9.063,15.063,5.875
-0.640,0.890,-0.790,7.312,19.125,5.875
-0.850,1.130,-1.070,6.125,17.687,0.125
-0.850,1.130,-1.070,6.125,17.687,0.125
-0.390,0.450,-0.530,3.813,8.875,-6.062
-0.390,0.450,-0.530,3.813,8.875,-6.062
-0.070,-0.060,0.010,0.187,-1.750,-7.062
0.110,-0.240,0.350,-1.187,-5.937,-5.062
0.110,-0.240,0.350,-1.187,-5.937,-5.062
0.470,-0.670,0.660,0.750,-5.500,-2.125
0.490,-0.360,0.440,2.688,-0.625,4.250
0.490,-0.360,0.440,4.062,8.250,9.063
0.360,-0.210,0.110,4.062,8.250,9.063
-0.130,0.140,-0.380,6.125,15.625,11.000
-0.130,0.140,-0.380,6.125,15.625,11.000
-0.770,1.210,-1.510,8.250,17.500,10.000
-0.860,1.780,-1.780,7.437,14.375,4.812
-0.860,1.780,-1.780,1.750,7.062,-2.375
-0.610,1.810,-1.510,1.750,7.062,-2.375
-0.610,1.810,-1.510,-4.562,-0.687,-7.562
-0.280,1.340,-1.020,-4.562,-0.687,-7.562
-0.280,1.340,-1.020,-5.812,-7.750,-14.063
0.140,0.300,-0.050,-5.812,-7.750,-14.063
0.670,-0.540,0.670,-3.938,-12.625,-20.062
0.770,-1.380,1.130,-2.375,-12.750,-18.250
0.770,-1.380,1.130,-0.375,-1.750,-8.500
0.440,-1.790,1.110,-0.375,-1.750,-8.500
0.010,-0.790,0.450,2.250,14.313,3.063
0.010,-0.790,0.450,2.250,14.313,3.063
-0.300,-0.260,-0.210,6.125,24.250,10.000
-1.080,0.330,-0.950,11.688,25.500,10.563
-1.080,0.330,-0.950,13.250,19.937,6.062
-1.400,1.010,-1.500,13.250,19.937,6.062
-0.680,1.530,-1.320,7.625,9.313,2.750
-0.540,1.150,-0.900,-0.687,-2.500,1.187
-0.540,1.150,-0.900,-0.687,-2.500,1.187
-0.200,0.740,-0.510,-5.250,-10.625,-3.063
-0.200,0.740,-0.510,-4.875,-17.437,-9.438
0.660,-0.110,0.480,-4.875,-17.437,-9.438
0.830,-0.670,0.810,-3.125,-19.125,-13.875
0.410,-1.060,0.720,-2.750,-11.938,-12.375
0.410,-1.060,0.720,-1.437,-0.562,-6.125
-0.330,-1.040,0.360,-1.437,-0.562,-6.125
-1.080,-0.470,-0.720,1.562,8.500,0.062
-1.080,-0.470,-0.720,1.562,8.500,0.062
-1.050,0.110,-0.670,6.250,10.563,2.688
-0.620,0.540,-0.650,8.063,7.250,3.688
-0.620,0.540,-0.650,8.063,7.250,3.688
-0.360,0.790,-0.630,7.312,5.250,4.187
-0.350,0.830,-0.630,3.313,4.437,3.938
-0.350,0.830,-0.630,3.313,4.437,3.938
-0.160,0.650,-0.520,-1.875,2.188,3.938
-0.160,0.650,-0.520,-4.437,-3.500,2.563
-0.060,0.640,-0.360,-4.437,-3.500,2.563
0.280,0.570,0.020,-2.188,-9.750,-3.000
0.430,-0.290,0.430,0.375,-11.250,-7.812
0.430,-0.290,0.430,0.375,-11.250,-7.812
0.280,-0.650,0.510,1.437,-7.500,-7.500
0.140,-0.710,0.450,2.125,1.500,-3.813
0.140,-0.710,0.450,2.125,1.500,-3.813
0.060,-0.430,0.150,3.188,9.438,0.937
-0.150,0.050,-0.270,3.500,14.375,4.312
-0.480,0.190,-0.590,1.625,17.500,5.875
-0.480,0.190,-0.590,1.625,17.500,5.875
-0.780,0.230,-0.660,-3.000,16.687,8.563
-0.780,0.230,-0.660,-7.375,12.625,11.875
-0.980,0.310,-0.710,-7.375,12.625,11.875
-0.470,0.130,-0.330,-7.000,4.125,9.563
-0.040,-0.150,0.080,-2.688,-6.312,3.688
-0.040,-0.150,0.080,1.000,-9.000,-1.937
0.090,-0.200,0.210,1.000,-9.000,-1.937
-0.010,-0.180,-0.040,4.187,-5.812,-3.875
-0.010,-0.180,-0.040,4.187,-5.812,-3.875
-0.070,-0.060,0.010,6.125,-3.188,-2.500
-0.070,-0.060,0.010,6.500,1.187,-0.312
-0.040,-0.020,-0.170,6.500,1.187,-0.312
-0.330,0.140,-0.460,6.187,5.750,0.937
-0.460,0.320,-0.500,4.250,7.937,1.125
-0.460,0.320,-0.500,4.250,7.937,1.125
-0.480,0.410,-0.590,0.062,10.688,3.750
-0.840,0.490,-0.900,-1.687,9.125,5.562
-0.840,0.490,-0.900,0.312,3.563,3.188
-0.870,0.740,-1.010,0.312,3.563,3.188
0.180,0.530,-0.330,2.688,-6.562,-1.000
0.240,0.430,-0.110,3.438,-13.563,-5.062
0.240,0.430,-0.110,3.438,-13.563,-5.062
0.330,0.110,0.100,4.312,-13.750,-8.688
0.440,-0.100,0.280,2.438,-7.812,-8.063
0.440,-0.100,0.280,2.438,-7.812,-8.063
0.040,-0.380,0.100,0.312,-1.437,-4.500
-0.290,-0.090,-0.170,-1.500,5.875,0.750
-0.290,-0.090,-0.170,-1.750,11.438,4.625
-0.350,0.000,-0.370,-1.750,11.438,4.625
-0.780,0.010,-0.620,-1.312,11.750,6.500
-0.780,0.010,-0.620,-1.312,11.750,6.500
-0.470,0.350,-0.570,-0.687,8.625,6.500
-0.110,0.320,-0.310,1.437,2.250,3.813
-0.110,0.320,-0.310,1.437,2.250,3.813
0.030,0.140,-0.110,3.563,-2.500,0.125
0.100,0.100,0.000,4.312,-6.000,-1.000
0.100,0.100,0.000,4.750,-6.375,-0.312
0.160,-0.040,0.000,4.750,-6.375,-0.312
0.130,-0.020,-0.060,4.875,-3.438,-0.875
0.130,-0.020,-0.060,4.875,-3.438,-0.875
0.120,0.000,-0.020,3.188,-0.500,-1.750
-0.050,0.130,-0.190,-0.062,4.562,0.375
-0.050,0.130,-0.190,-2.875,11.563,4.187
-0.200,-0.020,-0.280,-2.875,11.563,4.187
-0.470,0.080,-0.570,-3.875,16.812,6.375
-0.470,0.080,-0.570,-3.875,16.812,6.375
-0.630,0.500,-0.910,-3.125,16.625,6.187
-0.630,0.500,-0.910,-1.187,7.687,2.250
-0.510,1.060,-0.970,-1.187,7.687,2.250
-0.300,0.930,-0.750,-0.562,-3.188,-2.750
-0.320,0.710,-0.600,-0.562,-11.688,-7.937
-0.320,0.710,-0.600,0.687,-16.687,-13.250
-0.050,0.380,-0.190,0.687,-16.687,-13.250
0.250,-0.690,0.580,0.375,-18.187,-14.938
0.250,-0.690,0.580,0.375,-18.187,-14.938
0.320,-0.930,0.770,-1.125,-13.000,-9.813
0.120,-1.050,0.580,-1.312,-1.000,-4.875
-0.290,-0.530,0.140,-1.812,11.750,1.562
-0.290,-0.530,0.140,-1.812,11.750,1.562
-0.630,0.070,-0.460,-1.375,17.000,8.813
-0.630,0.070,-0.460,-2.188,18.687,13.688
-0.920,0.490,-0.830,-2.188,18.687,13.688
-0.900,0.850,-1.010,-2.125,18.437,14.063
-0.330,0.880,-0.570,-0.312,10.438,9.813
-0.330,0.880,-0.570,2.313,0.250,3.125
-0.180,0.500,-0.360,2.313,0.250,3.125
-0.150,0.430,-0.240,4.562,-8.750,-3.625
-0.150,0.430,-0.240,4.562,-8.750,-3.625
0.200,0.230,0.010,5.625,-13.625,-7.875
0.300,-0.090,0.140,5.125,-13.625,-8.063
0.130,-0.160,0.020,4.062,-8.750,-6.875
0.130,-0.160,0.020,4.062,-8.750,-6.875
-0.170,-0.060,-0.240,3.250,-0.687,-5.062
-0.170,-0.060,-0.240,2.125,6.562,-2.188
-0.410,0.240,-0.530,2.125,6.562,-2.188
-0.320,0.620,-0.600,0.562,9.688,0.312
-0.320,0.620,-0.600,-1.625,10.563,1.000
-0.430,0.530,-0.610,-1.625,10.563,1.000
-0.430,0.250,-0.380,-1.437,7.312,-1.937
-0.350,0.000,-0.240,-1.312,1.875,-3.375
-0.350,0.000,-0.240,-0.750,-4.500,-3.438
-0.260,-0.220,0.060,-0.750,-4.500,-3.438
-0.090,-0.210,0.140,0.750,-8.625,-3.125
-0.090,-0.210,0.140,1.875,-7.875,-1.375
0.130,-0.300,0.240,1.875,-7.875,-1.375
0.130,-0.460,0.360,3.125,-4.500,0.375
-0.050,-0.100,0.090,3.625,2.250,2.750
-0.050,-0.100,0.090,3.625,2.250,2.750
-0.190,-0.030,-0.040,4.437,9.250,4.437
-0.450,0.160,-0.300,4.375,14.125,6.312
-0.450,0.160,-0.300,4.375,14.125,6.312
-0.650,0.390,-0.550,4.500,16.687,7.000
-0.650,0.990,-0.970,4.687,14.875,5.500
-0.650,0.990,-0.970,4.187,7.250,2.000
-0.460,0.900,-0.770,4.187,7.250,2.000
-0.260,0.490,-0.490,4.187,-4.375,-3.125
-0.260,0.490,-0.490,4.187,-4.375,-3.125
-0.030,-0.040,-0.180,3.063,-11.688,-6.687
-0.030,-0.040,-0.180,2.813,-13.375,-8.063
0.060,-0.280,0.120,2.813,-13.375,-8.063
0.240,-0.590,0.430,2.125,-11.688,-6.562
0.090,-0.670,0.400,0.562,-5.875,-1.312
0.090,-0.670,0.400,0.562,-5.875,-1.312
-0.350,0.030,-0.170,-2.063,3.188,6.437
-0.350,0.030,-0.170,-2.063,3.188,6.437
-0.490,0.140,-0.440,-2.750,11.063,12.063
-0.740,0.300,-0.760,-2.438,14.750,14.063
-0.700,0.500,-0.770,-2.625,12.188,13.375
-0.700,0.500,-0.770,-2.625,12.188,13.375
-0.220,0.580,-0.520,-1.375,6.187,11.375
-0.030,0.590,-0.370,-1.375,0.562,9.375
-0.030,0.590,-0.370,-1.375,0.562,9.375
0.160,0.390,-0.140,-1.250,-3.938,5.562
0.160,0.390,-0.140,-0.812,-6.750,1.062
0.200,0.230,-0.090,-0.812,-6.750,1.062
0.350,-0.320,0.330,-0.875,-7.062,-1.375
0.370,-0.510,0.420,0.062,-4.250,-2.063
0.370,-0.510,0.420,0.062,-4.250,-2.063
0.190,-0.510,0.250,1.875,1.062,-1.937
-0.080,-0.440,-0.010,2.875,7.437,-0.375
-0.080,-0.440,-0.010,2.875,7.437,-0.375
-0.480,0.030,-0.420,2.750,10.563,2.938
-0.620,-0.020,-0.580,2.125,11.813,6.187
-0.650,0.240,-0.780,2.000,9.188,8.250
-0.650,0.240,-0.780,2.000,9.188,8.250
0.000,0.890,-0.640,1.062,2.938,8.750
0.380,0.710,-0.360,2.438,-4.750,4.562
0.380,0.710,-0.360,2.438,-4.750,4.562
0.450,0.450,-0.200,2.688,-11.000,-1.125
0.440,0.170,-0.120,1.000,-10.688,-3.563
0.440,0.170,-0.120,-0.187,-6.437,-2.500
0.090,-0.160,-0.090,-0.187,-6.437,-2.500
0.090,-0.160,-0.090,0.875,-2.125,-2.750
-0.080,-0.330,-0.140,0.875,-2.125,-2.750
-0.180,-0.310,-0.170,0.937,2.313,-3.625
-0.180,-0.310,-0.170,1.312,4.125,-1.125
-0.310,-0.140,-0.410,1.312,4.125,-1.125
-0.510,0.230,-0.770,1.937,6.500,1.750
-0.420,0.620,-0.870,0.875,6.437,2.875
-0.420,0.620,-0.870,0.875,6.437,2.875
-0.070,0.830,-0.700,-0.875,-2.125,-0.312
-0.070,0.830,-0.700,-0.875,-2.125,-0.312
0.170,0.740,-0.480,-0.875,-2.125,-0.312
0.080,0.270,-0.290,-0.875,-4.812,-3.500
0.160,0.140,-0.140,-1.375,-5.187,-6.375
0.260,-0.070,0.100,-1.625,-3.563,-6.000
0.260,-0.070,0.100,-1.625,-3.563,-6.000
0.170,-0.300,0.200,-2.188,1.062,-3.688
0.170,-0.300,0.200,-2.188,1.062,-3.688
-0.470,-0.530,-0.060,-2.188,1.062,-3.688
-0.760,-0.310,-0.360,0.562,7.125,2.000
-0.940,-0.040,-0.660,1.625,4.062,2.250
-0.870,0.210,-0.410,0.687,0.812,1.562
-0.870,0.210,-0.410,0.687,0.812,1.562
-0.730,0.150,-0.220,0.187,-0.562,0.750
-0.530,-0.150,0.020,2.688,-1.687,-1.062
-0.280,-0.460,0.290,4.562,-2.875,-1.062
-0.280,-0.460,0.290,4.562,-2.875,-1.062

-2.960,0.990,0.220,-1.000,5.875,-19.562
-2.960,0.990,0.220,-5.312,25.562,-35.125
-5.270,-1.580,2.140,-5.312,25.562,-35.125
-8.160,-3.330,2.540,-16.187,63.438,-33.688
-11.990,-3.900,0.810,-24.500,110.563,-9.938
-11.990,-3.900,0.810,-24.500,110.563,-9.938
-14.700,-3.700,-0.470,-14.813,146.687,15.688
-14.700,-3.700,-0.470,-4.312,146.437,31.437
-17.280,-1.270,-4.600,-4.312,146.437,31.437
-17.650,0.560,-4.990,10.438,107.875,30.562
-16.220,2.110,-3.740,27.250,49.563,8.313
-14.580,2.160,-2.030,29.312,-8.625,-22.750
-14.580,2.160,-2.030,29.312,-8.625,-22.750
-14.700,0.050,-0.570,32.375,-47.563,-43.313
-14.700,0.050,-0.570,45.063,-58.688,-50.250
-14.790,-0.970,-0.350,45.063,-58.688,-50.250
-14.600,-2.310,-0.500,35.563,-67.250,-40.375
-11.740,-3.160,-0.240,4.062,-82.688,-14.188
-11.020,-3.020,-0.550,-27.250,-89.875,12.063
-11.020,-3.020,-0.550,-27.250,-89.875,12.063
-11.410,-4.290,-2.330,-39.875,-93.688,15.500
-11.410,-4.290,-2.330,-39.875,-93.688,15.500
-13.310,-3.590,-4.490,-20.750,-101.188,0.187
-9.300,-2.140,-3.610,12.000,-131.000,-17.812
-9.300,-2.140,-3.610,33.813,-167.500,-23.437
-7.120,-2.860,-2.970,33.813,-167.500,-23.437
-4.070,-3.100,-1.730,50.563,-200.625,-21.750
-1.070,-3.580,-0.790,66.313,-214.187,-17.687
-1.070,-3.580,-0.790,66.313,-214.187,-17.687
0.420,-1.790,-2.270,72.188,-195.312,-3.438
0.570,0.390,-3.870,58.125,-163.625,17.562
0.570,0.390,-3.870,58.125,-163.625,17.562
1.090,2.830,-4.610,27.250,-138.062,41.688
1.450,4.610,-5.180,-1.437,-122.875,57.188
1.450,4.610,-5.180,-2.375,-120.500,49.438
2.310,4.520,-6.180,-2.375,-120.500,49.438
2.220,2.430,-6.740,11.313,-134.500,20.812
2.220,2.430,-6.740,33.438,-149.812,-14.875
0.620,-0.830,-7.880,33.438,-149.812,-14.875
0.690,-4.010,-7.160,53.438,-166.625,-37.063
5.470,-5.510,-1.840,46.000,-174.125,-26.000
5.470,-5.510,-1.840,46.000,-174.125,-26.000
7.910,-4.110,-0.480,30.000,-135.250,4.500
7.910,-4.110,-0.480,30.000,-135.250,4.500
8.240,-1.700,-0.900,30.000,-86.625,19.375
8.070,0.330,-3.150,37.438,-52.438,40.313
9.050,3.750,-8.920,36.625,-36.250,59.188
9.050,3.750,-8.920,45.375,-41.563,73.875
8.640,4.750,-11.630,45.375,-41.563,73.875
7.570,4.400,-12.210,71.438,-83.125,83.125
7.570,4.400,-12.210,71.438,-83.125,83.125
10.490,3.990,-7.810,42.250,-134.750,103.125
11.810,2.480,-4.710,-10.125,-152.437,115.125
13.450,0.640,-1.600,-34.250,-151.500,105.063
13.450,0.640,-1.600,-34.250,-151.500,105.063
13.690,-1.160,0.690,-49.000,-136.375,93.250
13.350,-3.370,4.080,-68.313,-109.563,89.063
13.350,-3.370,4.080,-68.313,-109.563,89.063
12.950,-2.770,4.180,-92.375,-65.563,91.063
12.950,-2.770,4.180,-87.813,-3.375,82.813
11.820,-2.190,3.010,-87.813,-3.375,82.813
10.550,-2.490,0.840,-33.625,34.000,57.625
10.550,-2.490,0.840,42.938,7.937,26.437
9.150,-0.670,-2.750,42.938,7.937,26.437
9.610,1.330,-4.230,115.750,-26.750,1.062
9.610,1.330,-4.230,115.750,-26.750,1.062
10.690,2.870,-4.170,137.375,-43.688,-9.688
11.310,3.030,-3.450,114.063,-54.313,-9.625
11.310,3.030,-3.450,114.063,-54.313,-9.625
11.390,1.540,-1.460,64.313,-41.313,5.000
11.570,0.680,0.140,7.937,-25.500,21.812
11.570,0.680,0.140,-15.313,-15.063,32.813
11.400,0.390,1.110,-15.313,-15.063,32.813
11.540,0.610,1.190,-23.812,8.500,43.813
11.540,0.610,1.190,-23.812,8.500,43.813
10.580,1.150,-0.170,-29.125,34.375,50.000
10.620,1.520,-1.490,-31.687,50.188,61.688
6.610,1.980,-3.290,-28.500,59.750,51.313
6.610,1.980,-3.290,-28.500,59.750,51.313
7.100,2.680,-7.040,-11.375,18.812,35.750
5.910,3.630,-5.730,37.500,-74.125,-20.250
5.910,3.630,-5.730,37.500,-74.125,-20.250
7.420,3.380,-4.260,56.000,-39.125,-59.500
8.320,2.120,-1.460,53.375,-39.313,-87.000
8.090,-0.200,0.940,43.938,-53.313,-92.875
8.090,-0.200,0.940,43.938,-53.313,-92.875
6.540,-1.250,0.570,23.312,-31.437,-78.063
6.540,-1.250,0.570,23.312,-31.437,-78.063
5.030,-1.850,0.050,7.750,3.375,-61.250
2.970,-1.570,-0.880,-15.000,38.063,-44.125
0.720,-1.060,-3.670,-21.562,71.250,-25.187
0.720,-1.060,-3.670,-21.562,71.250,-25.187
2.110,0.000,-4.050,6.375,79.500,-12.000
2.110,0.000,-4.050,43.625,60.063,-10.625
4.460,1.690,-3.420,43.625,60.063,-10.625
6.150,3.070,-2.910,60.500,40.188,-19.625
6.150,3.070,-2.910,66.625,24.937,-22.875
7.300,3.260,-2.090,66.625,24.937,-22.875
6.370,3.690,-0.870,46.625,13.250,-6.625
4.440,2.140,-0.760,14.188,18.562,-6.687
4.440,2.140,-0.760,14.188,18.562,-6.687
2.610,0.420,-1.230,-16.687,69.125,-8.563
2.610,0.420,-1.230,-49.438,104.813,-6.750
0.170,0.430,-3.390,-49.438,104.813,-6.750
1.440,1.520,-2.670,-50.125,109.313,-13.438
3.660,2.200,-1.860,-28.375,87.688,-38.125
3.660,2.200,-1.860,-7.312,72.375,-66.313
4.450,2.700,-1.460,-7.312,72.375,-66.313
4.210,1.220,-2.730,7.437,66.625,-93.125
4.210,1.220,-2.730,7.437,66.625,-93.125
0.820,0.860,-3.890,20.750,58.813,-110.938
0.820,0.860,-3.890,24.812,39.250,-130.625
-0.890,0.460,-4.190,24.812,39.250,-130.625
-4.250,-1.630,-4.290,8.563,22.000,-127.875
-5.390,-3.000,-4.210,-18.000,18.812,-96.875
-5.390,-3.000,-4.210,-36.750,30.437,-57.938
-5.920,-4.320,-3.900,-36.750,30.437,-57.938
-6.490,-4.760,-3.030,-49.875,38.813,-14.500
-6.490,-4.760,-3.030,-61.563,40.500,27.562
-3.480,-4.220,-1.120,-61.563,40.500,27.562
-3.030,-4.210,-1.140,-54.750,43.938,56.188
-4.060,-4.040,-2.800,-38.875,55.188,71.063
-4.060,-4.040,-2.800,-41.250,75.563,78.000
-5.060,-2.720,-4.650,-41.250,75.563,78.000
-4.290,-0.890,-3.090,-68.438,79.313,85.438
-4.290,-0.890,-3.090,-84.063,73.938,84.625
-3.500,-1.330,-1.030,-84.063,73.938,84.625
-2.750,-1.390,0.600,-87.938,56.063,78.250
-1.560,-1.950,2.360,-87.438,48.063,71.813
-1.560,-1.950,2.360,-76.563,48.563,59.875
0.800,-2.790,5.740,-76.563,48.563,59.875
-0.100,-2.440,5.120,-54.625,43.563,39.313
-0.100,-2.440,5.120,-54.625,43.563,39.313
-1.470,-0.910,2.600,-15.938,47.938,-1.125
-3.660,1.200,-0.040,31.187,50.438,-45.125
-4.450,0.960,0.770,48.250,33.813,-70.375
-4.450,0.960,0.770,48.250,33.813,-70.375
-5.530,0.550,1.560,26.625,44.750,-83.438
-5.530,0.550,1.560,26.625,44.750,-83.438
-6.360,-0.970,2.630,-18.375,79.625,-74.688
-10.670,-3.740,2.570,-55.438,116.250,-38.313
-10.680,-2.440,1.660,-72.563,138.125,16.875
-9.250,-0.880,1.440,-60.938,133.937,58.688
-9.250,-0.880,1.440,-60.938,133.937,58.688
-8.070,-0.060,1.800,-32.563,103.313,62.875
-8.070,-0.060,1.800,-32.563,103.313,62.875
-7.850,1.880,-0.460,-22.375,77.000,54.750
-7.850,1.880,-0.460,-22.375,77.000,54.750
-6.880,3.210,-1.400,-5.562,57.250,30.125
-5.030,3.700,-1.090,1.500,32.125,-8.188
-4.660,2.480,-0.200,-23.250,28.062,-24.562
-4.660,2.480,-0.200,-23.250,28.062,-24.562
-4.180,0.380,1.530,-48.750,40.250,-5.812
-4.180,0.380,1.530,-66.875,64.250,9.563
-4.500,-0.620,0.630,-66.875,64.250,9.563
-6.050,-0.860,-1.130,-65.813,96.688,-1.687
-8.820,-1.270,-2.390,-47.938,65.625,1.000
-8.820,-1.270,-2.390,-47.938,65.625,1.000
-4.870,0.830,-0.520,-29.375,26.937,-7.062
-3.330,0.640,0.670,-14.375,-2.875,-20.250
-3.330,0.640,0.670,-14.375,-2.875,-20.250
-2.440,-0.480,1.560,9.250,-26.562,-50.250
-1.760,-2.050,2.370,27.125,-40.438,-69.125
-1.760,-2.050,2.370,27.125,-40.438,-69.125
-1.550,-3.480,2.740,28.000,-38.500,-56.375
-1.330,-2.250,2.290,13.188,-18.562,-16.625
-1.330,-2.250,2.290,13.188,-18.562,-16.625
-1.430,-1.160,1.420,-2.813,8.563,18.812
-2.550,-0.030,-0.450,-6.687,37.375,37.000
-2.550,-0.030,-0.450,-6.687,37.375,37.000
-2.170,2.040,-2.450,-7.187,43.875,36.313
-1.550,2.420,-1.990,-3.938,33.750,22.250
-0.950,2.020,-1.360,2.375,13.438,1.562
-0.950,2.020,-1.360,2.375,13.438,1.562
-0.290,0.460,0.150,4.125,-4.375,-14.813
-0.290,0.460,0.150,4.187,-14.063,-28.375
0.500,-0.400,1.130,4.187,-14.063,-28.375
0.990,-1.090,1.740,2.688,-13.063,-32.813
1.130,-1.490,1.850,3.375,-2.375,-25.875
1.130,-1.490,1.850,5.937,9.563,-14.438
0.750,-0.620,0.430,5.937,9.563,-14.438
0.750,-0.620,0.430,7.062,17.750,-2.063
0.000,0.230,-0.470,7.062,17.750,-2.063
0.000,0.230,-0.470,7.062,17.750,-2.063
-0.510,0.880,-1.290,7.312,21.375,5.937
-0.510,0.880,-1.290,7.312,21.375,5.937
-0.480,1.870,-1.660,5.500,19.125,9.563
-0.480,1.870,-1.660,2.688,10.875,4.875
-0.480,2.170,-1.550,2.688,10.875,4.875
-0.380,1.250,-1.080,-0.750,-0.562,-6.437
0.100,0.420,-0.510,-5.250,-21.062,-19.812
0.100,0.420,-0.510,-5.250,-21.062,-19.812
0.470,-0.230,0.150,-5.250,-21.062,-19.812
0.470,-0.230,0.150,-5.250,-21.062,-19.812
0.990,-0.900,0.880,-7.062,-17.500,-18.812
0.590,-1.240,0.880,-4.500,5.687,-1.750
0.290,-1.430,0.730,-4.500,5.687,-1.750
0.290,-1.430,0.730,-4.500,5.687,-1.750
-0.300,-1.250,0.270,-3.375,35.625,21.250
-2.030,0.430,-1.980,-3.375,35.625,21.250
-2.030,0.430,-1.980,-3.375,35.625,21.250
-2.760,2.050,-3.110,-1.437,39.125,23.437
-1.470,2.720,-2.700,9.000,0.437,-7.750
-0.330,1.640,-1.090,8.875,-22.625,-25.500
-0.330,1.640,-1.090,8.875,-22.625,-25.500
0.160,0.450,-0.110,9.375,-32.438,-37.438
0.160,0.450,-0.110,9.813,-32.313,-35.000
1.160,-0.420,0.920,9.813,-32.313,-35.000
2.220,-1.510,2.080,7.687,-22.187,-21.187
0.810,-1.850,1.410,3.438,1.312,-6.875
0.810,-1.850,1.410,3.438,1.312,-6.875
0.490,-1.110,0.620,2.313,23.312,6.250
0.490,-1.110,0.620,2.375,35.438,17.500
0.240,-0.480,-0.160,2.375,35.438,17.500
-0.680,0.500,-1.140,2.563,35.563,18.687
-0.680,0.500,-1.140,2.563,35.563,18.687
-0.690,1.940,-1.710,3.188,23.687,10.438
-0.220,1.890,-1.140,0.750,8.375,-1.562
-0.340,1.160,-0.640,-0.062,-3.688,-12.125
-0.340,1.160,-0.640,-0.062,-3.688,-12.125
-0.490,0.170,-0.200,-0.687,-11.125,-16.000
-0.490,0.170,-0.200,0.375,-18.062,-15.813
0.390,-0.880,0.930,0.375,-18.062,-15.813
0.760,-1.520,1.430,2.625,-20.437,-12.375
0.640,-1.670,1.570,4.000,-12.625,-6.062
0.640,-1.670,1.570,4.000,-12.625,-6.062
0.270,-1.610,1.140,6.812,1.375,2.688
0.270,-1.610,1.140,6.812,1.375,2.688
-0.120,-0.470,0.240,9.125,12.813,9.875
-0.120,-0.470,0.240,9.125,12.813,9.875
-0.650,0.270,-0.510,12.500,20.312,9.750
-0.650,0.270,-0.510,12.500,20.312,9.750
-0.990,1.110,-1.280,16.125,18.250,1.437
-0.980,2.030,-1.890,13.063,8.688,-4.562
-0.980,2.030,-1.890,5.750,-2.250,-8.063
-0.760,1.600,-1.520,5.750,-2.250,-8.063
-0.470,1.120,-1.050,1.437,-12.125,-11.063
-0.470,1.120,-1.050,1.437,-12.125,-11.063
0.150,0.750,-0.440,0.000,-19.375,-13.563
1.280,-0.320,0.910,-1.062,-18.750,-13.438
0.940,-0.660,0.890,-2.938,-7.062,-8.375
0.940,-0.660,0.890,-2.938,-7.062,-8.375
0.360,-0.730,0.510,-1.562,8.063,-2.625
0.030,-0.400,0.030,1.437,18.250,1.375
0.030,-0.400,0.030,1.437,18.250,1.375
-0.580,0.310,-0.810,5.562,19.187,1.000
-0.580,0.310,-0.810,5.562,19.187,1.000
-1.070,0.750,-1.410,6.750,14.375,-1.562
-1.380,1.190,-1.700,5.125,4.500,-5.187
-1.380,1.190,-1.700,2.188,-6.312,-11.188

-2.960,1.850,-0.060,-14.188,18.250,-18.937
-2.960,1.850,-0.060,-9.438,19.250,-44.250
-5.440,1.790,-0.520,-9.438,19.250,-44.250
-7.220,0.790,0.010,-8.875,44.188,-81.750
-8.620,-1.030,1.090,-26.437,101.875,-116.563
-8.620,-1.030,1.090,-26.437,101.875,-116.563
-13.450,-3.710,1.180,-50.250,170.250,-127.875
-13.450,-3.710,1.180,-70.063,212.125,-113.375
-17.440,-4.790,-1.180,-70.063,212.125,-113.375
-20.120,-4.750,-3.810,-64.688,199.500,-84.875
-20.250,-4.920,-5.230,-47.375,111.813,-51.938
-17.440,-7.520,-3.310,-31.750,-3.563,-1.812
-17.440,-7.520,-3.310,-6.375,-88.625,47.125
-15.490,-5.320,-1.370,-6.375,-88.625,47.125
-11.960,-3.030,0.780,12.438,-142.312,70.500
-11.960,-3.030,0.780,25.812,-146.625,72.938
-10.230,-1.920,1.270,25.812,-146.625,72.938
-9.790,-0.150,0.130,33.063,-122.313,66.563
-9.110,0.660,0.800,14.750,-119.438,58.438
-9.110,0.660,0.800,14.750,-119.438,58.438
-8.970,1.070,1.080,-9.813,-122.750,41.063
-9.210,0.830,0.130,-14.000,-125.313,12.125
-9.210,0.830,0.130,-14.000,-125.313,12.125
-11.230,0.140,-3.170,-3.000,-140.625,-20.875
-10.140,-1.360,-2.700,14.750,-169.812,-50.125
-10.140,-1.360,-2.700,27.562,-195.437,-61.063
-8.810,-2.410,-1.150,27.562,-195.437,-61.063
-5.680,-2.750,0.700,27.312,-195.000,-60.313
-5.680,-2.750,0.700,27.312,-195.000,-60.313
-4.930,-4.340,0.580,28.250,-181.562,-46.500
-4.930,-4.340,0.580,43.188,-154.062,-15.375
-6.640,-5.410,-2.280,43.188,-154.062,-15.375
-6.140,-4.900,-3.800,74.438,-147.500,1.750
-1.110,-4.630,-5.780,127.875,-143.000,5.375
-1.110,-4.630,-5.780,160.812,-120.688,7.500
-0.180,-1.170,-7.840,160.812,-120.688,7.500
2.760,3.100,-8.830,143.375,-102.438,7.500
2.760,3.100,-8.830,104.688,-80.625,4.250
4.600,5.460,-9.260,104.688,-80.625,4.250
3.740,5.240,-13.170,41.000,-61.000,6.000
3.220,2.690,-12.740,-3.000,-94.375,9.813
3.220,2.690,-12.740,-3.000,-94.375,9.813
2.230,-0.340,-10.490,-14.000,-124.438,18.375
2.230,-0.340,-10.490,-14.000,-124.438,18.375
5.980,-4.780,-7.480,6.437,-145.625,30.125
8.950,-8.930,-0.230,24.875,-163.750,83.750
8.950,-8.930,-0.230,24.875,-163.750,83.750
10.080,-8.570,1.690,23.062,-155.125,160.187
12.840,-7.070,2.580,14.063,-114.875,218.500
12.840,-7.070,2.580,26.000,-55.063,245.812
14.100,-4.260,1.180,26.000,-55.063,245.812
9.700,5.020,-11.670,50.438,-24.625,232.000
9.700,5.020,-11.670,50.438,-24.625,232.000
8.820,8.590,-17.880,62.625,-49.563,184.375
9.860,9.530,-17.920,65.188,-115.063,116.750
16.170,5.630,-4.990,47.438,-181.500,44.500
16.170,5.630,-4.990,47.188,-193.437,-5.562
17.080,2.680,0.670,47.188,-193.437,-5.562
15.360,-0.580,3.880,39.813,-155.250,-24.500
15.360,-0.580,3.880,39.813,-155.250,-24.500
13.210,-3.220,4.250,-7.312,-74.125,-4.000
10.260,-3.200,0.820,-49.313,1.312,37.438
10.010,-1.280,-0.280,-44.688,2.750,73.375
10.010,-1.280,-0.280,-44.688,2.750,73.375
9.370,-0.510,-1.000,-5.625,-23.750,86.625
9.480,0.330,-1.990,31.500,-35.000,66.875
9.480,0.330,-1.990,31.500,-35.000,66.875
11.530,3.450,-0.340,54.375,-53.750,35.813
12.670,3.780,0.750,69.250,-64.438,8.250
13.600,3.920,2.460,68.500,-58.063,-18.125
13.600,3.920,2.460,68.500,-58.063,-18.125
14.060,3.470,3.560,43.563,-27.312,-33.250
14.060,3.470,3.560,43.563,-27.312,-33.250
11.110,1.220,0.860,5.687,23.500,-32.938
9.410,0.620,-0.880,-24.687,59.250,-21.875
9.410,0.620,-0.880,-24.687,59.250,-21.875
8.590,0.280,-2.010,-34.188,62.063,-13.063
8.200,-0.260,-2.560,-13.813,45.750,-12.250
8.200,-0.260,-2.560,18.187,27.437,-14.063
8.320,-0.160,-2.520,18.187,27.437,-14.063
8.710,1.000,-2.630,31.250,6.125,-22.500
8.710,1.000,-2.630,45.875,1.437,-28.312
10.380,3.140,-2.270,45.875,1.437,-28.312
10.330,3.140,-5.160,54.250,29.062,-28.000
9.790,2.500,-4.780,62.063,-14.813,-68.438
9.790,2.500,-4.780,58.438,-54.313,-91.375
8.530,1.790,-4.550,58.438,-54.313,-91.375
7.800,0.230,-4.470,27.562,-28.500,-100.438
7.800,0.230,-4.470,2.250,24.375,-89.375
5.140,-2.000,-5.260,2.250,24.375,-89.375
3.830,-4.050,-6.340,-14.250,53.500,-65.625
1.030,-5.030,-7.460,-16.875,58.063,-29.687
1.030,-5.030,-7.460,-2.813,43.063,-5.750
1.820,-3.110,-5.330,-2.813,43.063,-5.750
8.300,2.380,-1.200,22.437,34.250,-8.125
8.300,2.380,-1.200,22.437,34.250,-8.125
7.800,3.680,-0.780,51.563,35.625,-38.813
7.940,2.530,-1.060,65.750,41.125,-77.250
7.940,2.530,-1.060,60.625,57.563,-99.438
6.890,1.540,-2.710,60.625,57.563,-99.438
5.400,2.430,-4.090,29.062,72.125,-105.500
5.400,2.430,-4.090,29.062,72.125,-105.500
5.470,1.840,-4.070,-10.813,78.813,-101.813
3.170,0.630,-4.110,-48.750,86.938,-83.438
3.170,0.630,-4.110,-48.750,86.938,-83.438
0.880,-1.520,-4.410,-64.438,98.250,-66.250
-1.050,-3.400,-3.310,-53.313,98.188,-44.000
-1.050,-3.400,-3.310,-53.313,98.188,-44.000
-0.260,-2.290,-2.130,-32.500,86.563,-23.125
1.110,-0.990,-1.720,0.000,74.438,-17.375
1.110,-0.990,-1.720,0.000,74.438,-17.375
1.840,0.890,-2.150,27.625,60.125,-31.937
0.020,1.640,-6.430,37.250,45.500,-56.813
-1.360,0.400,-6.790,11.625,25.500,-68.000
-1.360,0.400,-6.790,11.625,25.500,-68.000
-1.760,-1.810,-6.130,-39.750,14.500,-53.188
-1.760,-1.810,-6.130,-81.875,25.875,-15.563
-4.550,-5.570,-4.560,-81.875,25.875,-15.563
-6.610,-7.430,-4.130,-90.125,48.875,12.063
-8.710,-7.060,-3.540,-69.375,61.750,7.437
-8.710,-7.060,-3.540,-56.500,65.313,3.063
-9.280,-3.990,-3.120,-56.500,65.313,3.063
-9.280,-3.990,-3.120,-46.063,59.563,10.063
-5.860,1.110,-2.480,-46.063,59.563,10.063
-3.630,2.440,-1.300,-36.813,35.688,10.063
-3.630,2.440,-1.300,-36.813,35.688,10.063
-0.390,3.850,0.520,-67.000,24.750,9.938
1.860,4.350,2.300,-105.813,30.437,8.438
2.520,1.120,4.210,-114.250,35.875,-6.750
2.520,1.120,4.210,-114.250,35.875,-6.750
-0.520,-1.350,3.170,-91.688,46.688,-27.062
-0.520,-1.350,3.170,-91.688,46.688,-27.062
-2.750,-2.400,1.270,-55.813,43.625,-34.750
-4.630,-2.540,0.920,-29.000,24.312,-49.125
-4.630,-2.540,0.920,-27.437,18.437,-55.813
-4.370,-3.290,3.980,-27.437,18.437,-55.813
-5.310,-2.170,2.910,-51.750,35.688,-37.125
-5.310,-2.170,2.910,-80.750,60.500,5.687
-6.000,-1.600,2.120,-80.750,60.500,5.687
-6.710,-3.040,1.470,-97.000,85.125,44.125
-6.710,-3.040,1.470,-102.688,110.813,71.313
-9.000,-1.570,-0.430,-102.688,110.813,71.313
-9.150,-1.060,-0.780,-88.250,142.125,71.125
-10.530,-0.530,-1.510,-60.750,143.000,46.000
-10.530,-0.530,-1.510,-33.000,115.813,11.125
-8.380,-0.730,1.200,-33.000,115.813,11.125
-8.310,-2.670,2.490,-14.375,89.000,-25.937
-8.310,-2.670,2.490,-14.375,89.000,-25.937
-9.590,-3.820,2.820,-10.000,82.750,-43.000
-9.470,-4.530,2.640,-15.688,90.250,-29.687
-9.470,-4.530,2.640,-28.000,91.500,2.188
-10.600,-2.620,2.320,-28.000,91.500,2.188
-12.270,0.040,-1.140,-42.938,130.875,4.187
-12.270,0.040,-1.140,-42.938,130.875,4.187
-13.180,1.580,-3.410,-50.375,118.188,8.938
-13.180,1.580,-3.410,-37.750,54.375,-7.312
-12.910,1.730,-2.870,-37.750,54.375,-7.312
-8.030,-0.130,0.670,-31.187,8.250,-19.937
-6.340,-1.370,2.270,-32.188,-14.375,-22.562
-6.340,-1.370,2.270,-32.188,-14.375,-22.562
-4.920,-2.960,3.230,-27.125,-18.687,-16.562
-3.670,-3.970,4.020,-22.312,-9.188,4.562
-3.670,-3.970,4.020,-22.312,-9.188,4.562
-2.520,-2.370,2.950,-16.875,12.625,35.000
-2.400,-0.900,1.230,-8.250,35.125,52.438
-1.880,0.530,0.270,-0.187,40.438,52.500
-1.880,0.530,0.270,-0.187,40.438,52.500
-1.800,1.730,-0.450,-1.312,35.313,44.125
-0.240,2.810,-1.480,1.375,25.062,27.687
-0.240,2.810,-1.480,1.375,25.062,27.687
0.630,2.350,-0.950,3.375,2.750,3.500
1.610,1.720,-0.200,2.375,-19.375,-21.312
2.760,0.140,1.400,3.500,-25.187,-38.313
2.760,0.140,1.400,3.500,-25.187,-38.313
2.280,-0.770,1.590,1.187,-17.562,-41.688
1.650,-1.260,1.570,-0.500,-3.688,-32.063
1.650,-1.260,1.570,-0.500,-3.688,-32.063
1.280,-1.310,1.090,1.187,10.438,-20.125
0.890,-0.540,0.720,3.000,16.375,-10.938
1.040,0.280,0.210,4.062,14.063,-3.813
1.040,0.280,0.210,4.062,14.063,-3.813
0.610,0.700,-0.600,8.938,11.000,-5.375
0.280,0.780,-0.820,12.313,5.687,-10.313
0.280,0.780,-0.820,12.313,5.687,-10.313
0.990,-0.220,-0.040,11.938,-2.000,-13.500
1.090,-0.690,0.260,10.938,-6.250,-11.250
1.050,-0.720,0.630,7.000,-3.750,-3.188
1.050,-0.720,0.630,7.000,-3.750,-3.188
0.940,-0.760,0.600,0.875,8.125,9.188
0.940,-0.760,0.600,0.875,8.125,9.188
-0.330,-0.350,-0.370,0.625,18.062,17.500
-0.840,0.110,-1.100,2.688,23.250,20.187
-1.280,0.760,-1.600,7.562,22.250,18.000
-1.280,0.760,-1.600,7.562,22.250,18.000
-0.840,1.350,-1.470,15.125,9.875,6.062
-0.840,1.350,-1.470,19.750,-7.312,-9.688
0.050,1.000,-0.940,19.750,-7.312,-9.688
0.760,0.080,0.080,17.937,-17.750,-16.875
0.760,0.080,0.080,17.937,-17.750,-16.875
0.630,-0.650,0.440,6.375,-11.938,-8.063
0.010,-0.480,0.060,-1.687,3.438,5.125
0.010,-0.480,0.060,-3.250,12.375,9.750
0.240,0.190,-0.270,-3.250,12.375,9.750
-0.130,0.650,-0.620,-4.750,16.187,12.000
-0.130,0.650,-0.620,-4.750,16.187,12.000
-0.480,0.920,-1.050,-2.688,15.688,9.375
-0.480,0.920,-1.050,2.063,12.500,3.313
-0.890,1.040,-1.390,2.063,12.500,3.313
-0.430,0.740,-1.030,6.187,7.937,-2.250
-0.050,0.530,-0.620,8.438,2.188,-6.375
-0.050,0.530,-0.620,8.438,2.188,-6.375
0.010,0.340,-0.260,8.313,-1.375,-9.000
0.460,-0.040,0.310,7.125,0.875,-8.750
0.460,-0.040,0.310,4.062,5.687,-4.187
0.380,-0.140,0.360,4.062,5.687,-4.187
0.440,-0.330,0.440,-0.500,9.750,2.313
0.290,-0.640,0.310,-3.500,14.375,8.750
0.290,-0.640,0.310,-3.500,14.375,8.750
-0.260,0.060,-0.520,-0.125,17.000,12.625
-0.260,0.060,-0.520,4.625,16.375,13.063
-0.520,0.580,-1.160,4.625,16.375,13.063
-0.520,1.080,-1.290,9.438,10.938,7.937
-0.030,1.180,-0.880,10.375,3.063,1.250
-0.030,1.180,-0.880,6.437,1.625,-2.188
-0.450,0.290,-0.590,6.437,1.625,-2.188
-0.130,0.060,-0.160,3.188,2.813,-2.813
-0.130,0.060,-0.160,3.188,2.813,-2.813
0.420,0.000,0.290,0.750,2.875,-0.750
0.280,0.000,0.190,-1.062,5.062,2.250
-0.350,0.450,-0.430,-0.625,10.500,5.687
-0.350,0.450,-0.430,0.125,13.750,8.500
-0.440,0.590,-0.700,0.125,13.750,8.500
-0.870,0.700,-1.280,2.813,10.188,6.875
-0.870,0.700,-1.280,2.813,10.188,6.875
-0.750,0.960,-1.450,6.562,0.750,0.000
-0.750,0.960,-1.450,8.875,-11.000,-7.250
-0.150,0.960,-0.780,8.875,-11.000,-7.250
0.560,0.470,0.000,7.750,-18.625,-12.813
0.790,-0.370,0.600,5.312,-15.313,-16.125
0.790,-0.370,0.600,5.312,-15.313,-16.125
0.050,-0.930,0.700,-0.375,-5.125,-11.938
0.160,-0.900,0.670,-6.562,6.562,-1.375
0.160,-0.900,0.670,-6.562,6.562,-1.375
-0.100,-0.820,0.400,-9.063,16.250,9.875
-0.470,-0.180,-0.010,-8.063,21.562,19.750
-0.620,0.330,-0.770,-4.750,21.125,23.750
-0.620,0.330,-0.770,-4.750,21.125,23.750
-0.850,0.580,-1.070,1.687,15.688,17.562
-0.850,0.580,-1.070,7.500,6.875,8.188
-0.160,0.650,-0.700,7.500,6.875,8.188

-2.560,-0.600,0.950,-5.375,10.438,-6.250
-2.560,-0.600,0.950,-5.375,10.438,-6.250
-4.440,-0.300,0.250,-10.313,19.000,-3.875
-5.430,-0.480,0.030,-9.625,25.312,-3.813
-5.430,-0.480,0.030,-9.625,25.312,-3.813
-6.250,-1.280,0.070,-8.000,25.375,-6.562
-8.870,-0.750,-0.170,-13.313,22.625,-4.062
-9.670,-0.190,-0.490,-18.125,15.875,-2.688
-9.670,-0.190,-0.490,-18.125,15.875,-2.688
-10.560,-1.090,-0.720,-11.250,-1.437,-11.125
-10.560,-1.090,-0.720,2.000,-27.125,-26.625
-11.410,-2.340,-0.520,2.000,-27.125,-26.625
-11.480,-2.810,0.930,4.687,-50.000,-26.937
-10.230,-2.150,3.000,-0.062,-70.063,-13.063
-10.980,-1.050,3.790,2.688,-81.500,-4.437
-10.980,-1.050,3.790,2.688,-81.500,-4.437
-12.940,0.530,4.070,6.062,-71.500,-13.313
-12.940,0.530,4.070,6.062,-71.500,-13.313
-16.580,-0.660,3.110,5.687,-36.750,-39.375
-19.320,-3.150,0.240,1.125,10.375,-67.500
-21.040,-4.710,-2.080,-9.563,40.500,-74.500
-21.040,-4.710,-2.080,-9.563,40.500,-74.500
-20.540,-5.510,-3.740,-23.437,32.625,-62.813
-16.760,-6.860,-4.590,-33.000,-14.813,-50.563
-16.760,-6.860,-4.590,-33.000,-14.813,-50.563
-14.780,-8.230,-3.330,-26.875,-78.063,-41.188
-12.140,-9.250,-1.190,-10.063,-141.250,-19.750
-12.140,-9.250,-1.190,-10.063,-141.250,-19.750
-8.570,-9.810,2.530,19.250,-193.250,-8.813
-5.900,-11.430,2.610,48.313,-212.125,3.563
-5.900,-11.430,2.610,79.125,-200.187,25.062
-4.940,-13.530,1.500,79.125,-200.187,25.062
-5.160,-13.220,-1.200,129.750,-179.062,56.000
-5.160,-13.220,-1.200,170.000,-163.750,91.125
-0.330,-3.510,-9.310,170.000,-163.750,91.125
2.110,3.020,-13.880,201.250,-160.375,112.813
4.430,10.260,-16.510,201.062,-167.437,95.938
4.430,10.260,-16.510,201.062,-167.437,95.938
5.120,15.250,-16.860,155.250,-180.625,61.625
3.640,12.620,-11.890,84.250,-198.312,23.437
3.640,12.620,-11.890,84.250,-198.312,23.437
4.210,5.280,-10.240,21.437,-211.687,-7.062
6.560,-1.140,-7.260,13.250,-216.375,-44.000
6.560,-1.140,-7.260,41.000,-212.750,-53.563
8.480,-4.260,-2.560,41.000,-212.750,-53.563
10.330,-3.340,0.200,29.062,-179.812,-30.500
10.330,-3.340,0.200,29.062,-179.812,-30.500
12.020,0.160,-0.340,0.750,-107.938,4.687
12.020,0.160,-0.340,-8.625,-32.125,52.125
11.660,3.390,-2.120,-8.625,-32.125,52.125
9.940,5.620,-4.610,14.250,23.625,88.625
8.030,8.500,-11.330,31.000,27.875,103.875
8.030,8.500,-11.330,31.000,27.875,103.875
5.740,8.200,-13.530,42.188,-2.063,98.938
5.740,8.200,-13.530,42.188,-2.063,98.938
5.180,5.700,-13.350,54.625,-54.188,68.375
12.710,-1.000,-2.840,41.438,-120.750,31.000
14.100,-3.110,2.450,13.375,-150.875,28.625
14.100,-3.110,2.450,-24.250,-131.562,48.000
14.640,-4.300,4.710,-24.250,-131.562,48.000
14.640,-4.300,4.710,-81.563,-72.500,75.188
13.560,-4.570,3.680,-81.563,-72.500,75.188
10.000,-2.090,-0.760,-118.750,4.125,95.875
10.000,-2.090,-0.760,-103.563,60.313,96.688
9.800,-0.780,-1.900,-103.563,60.313,96.688
9.590,1.050,-1.550,-43.813,41.563,82.750
9.990,1.960,-1.330,32.000,-13.375,55.125
9.990,1.960,-1.330,32.000,-13.375,55.125
10.630,2.800,-1.300,89.250,-26.937,23.000
10.630,2.800,-1.300,108.625,-29.625,0.062
11.130,2.360,-0.790,108.625,-29.625,0.062
11.890,2.180,-0.430,102.563,-29.437,-8.875
12.210,2.150,-0.390,63.313,-13.688,5.125
12.210,2.150,-0.390,63.313,-13.688,5.125
10.630,1.540,-2.570,12.938,12.000,31.062
10.630,1.540,-2.570,12.938,12.000,31.062
10.120,1.400,-2.790,-29.625,34.250,52.688
10.120,1.400,-2.790,-29.625,34.250,52.688
9.600,1.540,-2.150,-29.625,34.250,52.688
9.600,1.540,-2.150,-15.875,21.750,45.188
10.130,1.450,-1.460,-15.875,21.750,45.188
8.850,1.710,-1.800,4.812,8.188,38.813
9.500,1.980,-3.020,18.750,14.875,29.937
9.500,1.980,-3.020,74.563,-42.938,-36.063
9.460,3.260,-3.120,74.563,-42.938,-36.063
9.590,3.670,-3.830,74.563,-42.938,-36.063
9.590,3.670,-3.830,43.125,-2.875,-73.063
10.590,2.210,-2.700,43.125,-2.875,-73.063
10.760,0.720,-1.810,12.313,7.187,-74.188
9.300,-0.770,-2.060,-12.063,41.875,-68.063
9.300,-0.770,-2.060,-12.063,41.875,-68.063
5.290,-3.250,-4.250,-25.625,80.500,-53.938
5.290,-3.250,-4.250,-25.687,84.000,-29.750
4.080,-4.500,-5.120,-25.687,84.000,-29.750
4.950,-3.230,-4.240,-22.437,56.063,-3.500
7.640,-0.660,-2.600,-5.437,31.937,-1.500
9.180,3.230,-1.860,21.750,27.125,-30.625
9.180,3.230,-1.860,21.750,27.125,-30.625
7.680,4.540,-2.200,31.625,47.063,-70.750
7.680,4.540,-2.200,9.313,74.500,-80.375
8.190,5.360,-2.880,9.313,74.500,-80.375
7.800,5.180,-3.220,-30.625,98.438,-84.625
4.510,2.020,-4.330,-62.688,148.437,-87.875
4.510,2.020,-4.330,-85.063,196.625,-88.750
3.460,0.200,-5.200,-85.063,196.625,-88.750
2.400,-0.770,-5.580,-91.000,201.000,-90.688
2.400,-0.770,-5.580,-91.000,201.000,-90.688
2.670,-1.080,-4.850,-82.563,185.125,-100.938
2.670,-1.080,-4.850,-64.063,172.500,-111.813
2.260,0.620,-2.980,-64.063,172.500,-111.813
0.500,1.340,-4.000,-39.563,164.562,-124.063
0.350,2.070,-5.420,-26.562,145.375,-127.250
0.350,2.070,-5.420,-26.562,145.375,-127.250
1.160,3.690,-7.560,-32.688,128.562,-128.750
1.160,3.690,-7.560,-60.313,130.812,-128.375
-0.330,2.050,-6.530,-60.313,130.812,-128.375
-1.610,-2.780,-6.290,-86.063,112.188,-106.000
-3.540,-5.640,-6.070,-109.688,98.813,-54.438
-3.540,-5.640,-6.070,-109.688,98.813,-54.438
-6.170,-4.900,-6.690,-118.500,94.125,3.688
-5.910,-3.240,-5.940,-94.000,66.688,43.688
-5.910,-3.240,-5.940,-94.000,66.688,43.688
-5.830,-1.380,-5.210,-58.500,16.062,56.188
-5.090,0.510,-4.000,-22.000,-26.500,45.875
-5.090,0.510,-4.000,-22.000,-26.500,45.875
-6.460,-1.100,-2.970,-2.813,-50.813,26.062
-5.940,-2.410,-1.720,-7.937,-55.500,25.437
-4.010,-4.760,1.040,-32.688,-40.625,53.875
-4.010,-4.760,1.040,-32.688,-40.625,53.875
-3.860,-6.570,2.340,-67.625,1.812,101.875
-3.860,-6.570,2.340,-82.938,53.688,148.812
-8.720,-5.570,-1.080,-82.938,53.688,148.812
-9.850,-2.430,-3.270,-70.000,65.875,161.437
-7.210,0.220,-3.050,-43.125,24.750,132.562
-7.210,0.220,-3.050,-43.125,24.750,132.562
-6.270,2.430,-1.230,-44.688,-1.750,98.000
-7.590,1.400,1.700,-63.500,17.687,68.813
-7.590,1.400,1.700,-63.500,17.687,68.813
-8.630,-0.710,2.280,-82.250,75.813,49.813
-8.730,-2.080,2.620,-85.625,120.250,26.937
-7.900,-2.440,2.770,-74.375,134.125,13.438
-7.900,-2.440,2.770,-74.375,134.125,13.438
-10.310,-3.020,0.680,-47.938,127.500,5.625
-10.310,-3.020,0.680,-26.437,111.500,-3.000
-9.660,-1.970,0.980,-26.437,111.500,-3.000
-8.670,-0.240,1.420,-12.938,94.000,-11.313
-6.730,1.790,1.160,-9.500,70.563,-16.062
-6.400,1.450,1.690,-11.813,59.688,-27.250
-6.400,1.450,1.690,-11.813,59.688,-27.250
-5.020,1.810,0.530,-20.875,72.375,-53.188
-5.020,1.810,0.530,-20.875,72.375,-53.188
-5.750,1.840,0.490,-24.625,81.250,-49.750
-5.990,0.970,-1.660,-27.500,62.313,-47.750
-5.700,-0.200,-0.470,-29.812,29.500,-50.125
-5.700,-0.200,-0.470,-29.812,29.500,-50.125
-4.240,-1.260,1.210,-35.188,10.750,-38.563
-3.580,-1.640,2.050,-37.750,22.937,-5.625
-3.580,-1.640,2.050,-37.750,22.937,-5.625
-3.750,-2.660,1.680,-25.500,27.750,17.125
-3.750,-2.660,1.680,-2.438,21.875,15.625
-3.960,-2.500,1.620,-2.438,21.875,15.625
-3.020,-2.150,1.920,14.125,24.500,11.688
-2.320,-1.750,1.960,28.750,26.625,15.625
-2.320,-1.750,1.960,28.750,26.625,15.625
-2.010,-0.620,0.200,36.938,30.062,18.687
-1.700,0.440,-1.100,31.187,43.563,18.812
-1.700,0.440,-1.100,19.500,53.625,13.563
-1.170,1.270,-1.340,19.500,53.625,13.563
-0.920,1.630,-1.580,14.875,52.875,3.875
-0.740,1.040,-1.150,8.938,49.375,-2.063
-0.740,1.040,-1.150,9.500,45.188,-1.312
-0.700,0.530,-1.190,9.500,45.188,-1.312
0.000,-0.020,-0.530,17.000,29.625,2.500
0.000,-0.020,-0.530,19.937,12.750,10.125
0.360,-0.540,0.300,19.937,12.750,10.125
0.020,-1.030,0.190,23.937,0.750,11.750
-0.120,-1.030,-0.390,22.375,-10.250,15.688
-0.120,-1.030,-0.390,22.375,-10.250,15.688
-0.420,-0.200,-0.790,13.063,-17.437,27.687
-0.420,-0.200,-0.790,13.063,-17.437,27.687
-0.460,0.770,-1.570,6.000,-17.312,38.375
-0.390,1.300,-1.520,-1.437,-14.250,41.563
-0.530,1.510,-1.580,-9.125,-14.125,36.438
-0.530,1.510,-1.580,-9.125,-14.125,36.438
-0.360,1.470,-1.540,-8.313,-16.812,23.062
-0.280,0.690,-1.030,4.937,-21.375,7.187
-0.280,0.690,-1.030,4.937,-21.375,7.187
0.180,-0.260,0.260,22.312,-30.937,-9.000
0.180,-0.260,0.260,27.000,-33.250,-18.062
0.900,-1.500,1.120,27.000,-33.250,-18.062
0.960,-2.620,1.810,30.000,-26.375,-18.250
0.140,-2.110,0.720,27.250,-9.875,-10.000
0.140,-2.110,0.720,27.250,-9.875,-10.000
-0.080,-0.790,-0.650,18.937,7.937,4.437
-0.110,0.520,-1.280,4.937,19.562,19.500
-0.110,0.520,-1.280,4.937,19.562,19.500
-0.250,1.830,-1.260,-9.438,28.312,26.437
-0.580,3.100,-2.320,-18.062,31.437,23.125
-0.580,3.100,-2.320,-13.438,18.687,3.938
-0.280,2.740,-1.850,-13.438,18.687,3.938
0.200,1.900,-1.000,-10.063,-0.750,-15.813
0.200,1.900,-1.000,-10.063,-0.750,-15.813
0.470,0.930,-0.100,-4.937,-17.687,-26.437
0.730,-1.670,1.420,1.875,-25.562,-30.250
0.600,-2.700,1.710,8.500,-21.875,-26.250
0.600,-2.700,1.710,12.313,-13.375,-14.688
0.230,-3.100,1.430,12.313,-13.375,-14.688
-0.510,-1.460,-0.110,11.813,-4.250,1.187
-0.510,-1.460,-0.110,11.813,-4.250,1.187
-0.470,-0.370,-0.610,5.562,3.000,15.313
-0.470,-0.370,-0.610,-2.125,8.625,24.750
-0.350,0.770,-1.010,-2.125,8.625,24.750
-0.020,1.620,-1.320,-7.562,12.125,25.125
0.130,1.500,-0.990,-6.562,12.313,17.312
0.130,1.500,-0.990,-1.125,6.812,7.562
0.240,0.900,-0.360,-1.125,6.812,7.562
0.700,0.260,0.250,3.188,-0.187,1.375
0.700,0.260,0.250,3.188,-0.187,1.375
0.910,-0.270,0.630,7.937,-4.000,-2.563
0.580,-0.780,0.590,13.063,-4.687,-5.000
0.580,-0.780,0.590,16.625,-3.375,-4.375
0.370,-0.640,0.200,16.625,-3.375,-4.375
0.090,-0.600,-0.080,17.812,-1.125,-2.500
0.090,-0.600,-0.080,17.812,-1.125,-2.500
-0.260,-0.330,-0.420,12.750,3.750,4.062
-0.260,-0.330,-0.420,5.687,11.313,12.438
-0.110,-0.020,-0.420,5.687,11.313,12.438
-0.370,0.090,-0.490,-1.187,19.750,18.500
-0.480,0.080,-0.750,-4.250,23.875,21.187
-0.480,0.080,-0.750,-4.687,19.875,22.000
-0.340,0.410,-0.660,-4.687,19.875,22.000
0.160,1.030,-0.480,-4.375,14.125,20.625
0.160,1.030,-0.480,-4.375,14.125,20.625
0.240,0.990,-0.430,-2.125,9.250,15.375
0.140,0.620,-0.520,0.687,3.688,7.000
-0.270,0.020,-0.760,3.938,-1.312,1.062
-0.270,0.020,-0.760,3.938,-1.312,1.062
-0.150,0.000,-0.590,9.813,-6.562,-2.125
-0.150,0.000,-0.590,11.188,-7.125,-2.000
-0.260,0.020,-0.660,11.188,-7.125,-2.000
-0.490,0.200,-0.720,9.000,-2.438,0.375
-0.550,0.340,-0.560,6.812,2.563,1.562
-0.740,0.320,-0.700,5.500,6.375,1.875
-0.740,0.320,-0.700,5.500,6.375,1.875
-0.770,0.610,-0.780,4.125,6.625,1.562
-0.770,0.610,-0.780,4.125,6.625,1.562
-0.430,0.700,-0.510,1.437,4.250,2.313
0.110,0.850,0.000,-3.500,4.687,4.937
0.040,0.250,0.060,-4.625,6.437,5.000
0.040,0.250,0.060,-2.000,5.187,3.438

-4.050,-0.850,-1.140,5.875,-2.125,1.937
-4.050,-0.850,-1.140,5.562,3.500,2.625
-5.680,-1.220,-1.080,5.562,3.500,2.625
-6.970,-2.220,-0.800,3.813,9.188,5.937
-6.970,-2.220,-0.800,1.125,13.813,15.313
-8.750,-2.520,-0.760,1.125,13.813,15.313
-13.320,0.450,-2.570,2.125,16.875,21.000
-13.320,0.450,-2.570,2.125,16.875,21.000
-15.710,2.400,-2.820,16.937,5.062,6.812
-19.010,2.810,-2.890,42.750,-21.750,-31.875
-23.010,2.080,-2.960,61.000,-38.625,-77.188
-23.010,2.080,-2.960,60.563,-42.688,-100.250
-26.140,-1.410,-2.170,60.563,-42.688,-100.250
-26.130,-3.650,-3.340,43.750,-52.563,-90.375
-26.130,-3.650,-3.340,43.750,-52.563,-90.375
-24.990,-6.030,-4.350,31.625,-78.563,-67.688
-22.180,-8.570,-3.990,11.500,-123.125,-41.063
-22.180,-8.570,-3.990,11.500,-123.125,-41.063
-15.520,-10.140,-0.910,-16.312,-168.812,-1.875
-12.150,-9.790,0.540,-27.375,-204.812,39.563
-12.150,-9.790,0.540,-8.313,-227.875,64.375
-10.280,-9.170,1.600,-8.313,-227.875,64.375
-6.540,-6.800,1.690,19.625,-215.750,87.250
-6.540,-6.800,1.690,19.625,-215.750,87.250
-5.440,-5.690,-0.130,44.375,-186.500,104.125
-7.100,-3.970,-3.390,77.625,-172.562,94.688
-7.780,-2.090,-6.960,109.125,-178.625,60.563
-7.780,-2.090,-6.960,109.125,-178.625,60.563
2.720,-0.340,-10.570,113.500,-207.125,36.813
2.720,-0.340,-10.570,111.938,-231.000,38.250
8.330,4.980,-8.570,111.938,-231.000,38.250
13.240,13.330,-7.300,80.000,-220.000,38.375
16.100,20.210,-7.020,34.250,-169.500,28.750
16.100,20.210,-7.020,7.750,-116.063,-1.937
10.860,17.190,-9.140,7.750,-116.063,-1.937
6.470,10.080,-9.390,-6.562,-84.188,-44.500
6.470,10.080,-9.390,-6.562,-84.188,-44.500
3.300,3.530,-8.460,1.125,-76.250,-86.188
3.300,3.530,-8.460,41.563,-92.375,-121.750
2.290,-0.450,-7.280,41.563,-92.375,-121.750
8.000,-1.750,0.350,79.313,-134.750,-129.000
7.660,-1.810,-0.530,81.313,-131.250,-130.875
7.660,-1.810,-0.530,72.625,-68.438,-116.500
6.770,-1.780,-4.190,72.625,-68.438,-116.500
7.030,0.390,-6.870,31.625,-26.250,-68.563
7.030,0.390,-6.870,-23.625,-44.438,3.875
7.260,3.500,-8.430,-23.625,-44.438,3.875
6.280,2.520,-7.430,-36.188,-70.188,59.063
7.180,0.360,-5.310,-21.750,-103.688,79.500
7.180,0.360,-5.310,-21.750,-103.688,79.500
11.300,-3.370,-1.380,-5.125,-132.750,78.563
11.300,-3.370,-1.380,10.375,-135.250,78.063
12.480,-3.770,0.580,10.375,-135.250,78.063
13.320,-3.660,1.590,-1.187,-115.188,88.625
13.320,-3.660,1.590,-31.437,-76.875,102.500
13.750,-3.380,1.700,-31.437,-76.875,102.500
12.610,-1.930,-1.980,-37.188,-29.562,101.313
12.610,-1.930,-1.980,-6.062,5.812,82.188
11.550,-0.430,-4.250,-6.062,5.812,82.188
10.560,1.290,-5.620,20.875,13.500,58.438
10.560,1.290,-5.620,36.500,1.812,33.125
10.500,2.260,-5.660,36.500,1.812,33.125
11.030,2.620,-4.000,52.063,-14.063,6.000
12.010,2.260,-1.360,67.875,-44.000,-17.812
12.010,2.260,-1.360,67.438,-62.000,-27.375
12.820,1.450,0.840,67.438,-62.000,-27.375
13.230,0.620,2.000,42.813,-56.375,-18.687
13.230,0.620,2.000,42.813,-56.375,-18.687
11.800,0.640,0.780,9.063,-32.188,5.750
11.630,0.390,0.070,-16.750,1.312,30.312
11.630,0.390,0.070,-26.375,22.750,33.375
10.280,1.020,-0.480,-26.375,22.750,33.375
9.570,1.280,-1.910,-35.500,44.875,36.188
9.570,1.280,-1.910,-35.500,44.875,36.188
9.510,1.750,-3.190,-28.062,50.500,32.125
9.510,1.750,-3.190,-1.187,28.875,21.937
8.850,1.810,-2.040,-1.187,28.875,21.937
8.100,2.760,-2.800,27.625,29.500,7.312
9.180,2.700,-2.890,51.813,-21.875,-10.875
9.180,2.700,-2.890,51.813,-21.875,-10.875
8.200,1.290,-0.620,65.250,-28.812,-56.000
8.200,1.290,-0.620,65.250,-28.812,-56.000
7.780,0.590,-0.510,45.000,15.563,-72.438
7.780,0.590,-0.510,23.625,38.063,-75.188
6.770,-0.230,-0.820,23.625,38.063,-75.188
4.850,-1.620,-2.250,9.563,52.938,-65.063
4.150,-1.070,-2.540,1.000,71.688,-48.250
4.150,-1.070,-2.540,-4.375,85.375,-36.250
3.680,-1.590,-3.260,-4.375,85.375,-36.250
3.570,-1.400,-3.440,1.625,73.750,-24.625
3.570,-1.400,-3.440,1.625,73.750,-24.625
4.600,2.050,-3.230,16.437,56.563,-19.812
4.850,2.950,-3.730,30.687,49.938,-33.000
4.220,3.560,-4.480,39.063,52.625,-61.438
4.220,3.560,-4.480,39.063,52.625,-61.438
3.150,4.240,-5.350,29.000,54.313,-85.125
1.640,1.020,-6.070,0.437,60.250,-95.813
1.640,1.020,-6.070,0.437,60.250,-95.813
1.500,-0.450,-5.390,-36.563,72.375,-95.188
1.100,-1.720,-4.440,-61.188,79.563,-84.938
0.370,-2.560,-3.700,-66.500,83.063,-66.188
0.370,-2.560,-3.700,-66.500,83.063,-66.188
-3.590,-2.640,-3.520,-66.250,77.938,-31.687
-4.200,-2.680,-4.170,-50.875,77.438,-16.312
-4.200,-2.680,-4.170,-50.875,77.438,-16.312
-4.060,-0.950,-3.900,-13.563,61.188,-21.187
-2.490,1.430,-2.990,12.563,29.812,-40.688
-0.310,1.870,-1.600,17.187,16.500,-69.500
-0.310,1.870,-1.600,17.187,16.500,-69.500
-2.040,0.290,-2.980,-3.938,33.125,-83.125
-2.040,0.290,-2.980,-3.938,33.125,-83.125
-3.630,-2.130,-4.900,-34.000,61.313,-70.250
-6.290,-4.840,-5.210,-52.313,77.563,-39.563
-6.290,-4.840,-5.210,-56.063,64.063,-12.688
-7.270,-3.940,-4.280,-56.063,64.063,-12.688
-5.920,-3.500,-2.440,-36.188,36.875,9.313
-5.920,-3.500,-2.440,-36.188,36.875,9.313
-4.810,-2.600,-1.210,-10.875,13.375,32.000
-4.810,-2.600,-1.210,14.188,-11.500,48.750
-0.950,-0.220,1.990,14.188,-11.500,48.750
1.670,-0.950,4.370,32.250,-34.188,51.813
3.500,-1.770,6.170,18.750,-43.563,51.938
4.020,-2.210,6.130,-27.562,-14.875,72.500
4.020,-2.210,6.130,-27.562,-14.875,72.500
-0.900,-2.060,0.180,-71.625,62.688,120.500
-0.900,-2.060,0.180,-99.063,144.437,154.187
-2.460,-1.310,-3.570,-99.063,144.437,154.187
-3.660,0.740,-4.890,-99.875,181.875,148.187
-4.840,3.080,-4.510,-69.438,163.312,125.188
-1.380,7.440,-2.440,-40.063,119.438,82.188
-1.380,7.440,-2.440,-40.063,119.438,82.188
0.380,6.440,0.420,-16.687,80.563,17.312
0.380,6.440,0.420,-16.687,80.563,17.312
0.940,2.720,1.650,0.437,55.750,-43.188
-0.540,-1.280,1.300,-0.437,40.188,-63.250
-3.420,-4.820,-0.080,-6.625,52.438,-53.688
-3.420,-4.820,-0.080,-17.250,77.375,-30.937
-3.630,-4.460,0.160,-17.250,77.375,-30.937
-4.170,-2.250,0.070,-37.875,101.813,2.063
-4.170,-2.250,0.070,-37.875,101.813,2.063
-4.830,1.490,-0.830,-56.250,132.562,22.250
-5.800,2.640,-1.160,-59.125,149.250,20.687
-5.800,2.640,-1.160,-59.125,149.250,20.687
-6.670,3.180,-1.630,-62.438,148.187,9.125
-7.210,2.320,-1.320,-62.313,129.750,-8.125
-7.210,2.320,-1.320,-62.313,129.750,-8.125
-7.270,-1.520,0.980,-60.625,107.813,-30.500
-8.300,-3.670,1.410,-59.938,90.313,-46.500
-8.300,-3.670,1.410,-59.938,90.313,-46.500
-8.970,-4.500,1.290,-55.375,77.688,-45.438
-9.160,-3.770,1.490,-55.688,71.500,-16.250
-9.140,-3.340,1.170,-53.375,75.438,-0.375
-9.140,-3.340,1.170,-48.125,96.563,1.312
-10.060,-3.250,0.910,-48.125,96.563,1.312
-10.330,-2.720,0.850,-36.938,60.688,25.312
-10.330,-2.720,0.850,-36.938,60.688,25.312
-8.540,-1.520,0.780,-22.937,46.938,32.875
-7.190,-0.340,0.250,-7.750,41.000,22.750
-6.160,0.250,-0.120,6.500,28.875,10.438
-6.160,0.250,-0.120,6.500,28.875,10.438
-4.450,0.980,-0.180,11.125,10.250,6.562
-4.450,0.980,-0.180,10.500,-3.625,7.500
-3.070,1.610,-0.600,10.500,-3.625,7.500
-2.190,0.980,-0.490,11.500,-16.375,8.000
-1.160,0.660,0.250,7.812,-30.312,9.188
-1.160,0.660,0.250,0.687,-32.375,12.688
-0.070,0.100,1.070,0.687,-32.375,12.688
-0.130,-0.390,0.890,-3.625,-19.750,16.750
-0.130,-0.390,0.890,-3.625,-19.750,16.750
-0.580,-0.460,0.290,-3.188,-3.250,21.500
-0.580,-0.460,0.290,2.188,8.688,21.312
-0.510,-0.360,0.040,2.188,8.688,21.312
0.210,0.050,0.090,10.813,10.125,15.438
1.240,0.770,0.160,17.250,4.250,7.687
1.240,0.770,0.160,21.812,2.188,-5.062
1.210,0.930,-0.140,21.812,2.188,-5.062
1.210,0.930,-0.140,21.937,6.625,-17.062
1.410,1.060,-0.360,21.937,6.625,-17.062
1.700,1.150,-0.380,15.375,13.063,-22.250
1.840,1.050,-0.220,7.625,15.188,-21.000
1.450,0.340,-0.490,2.188,15.063,-14.625
1.450,0.340,-0.490,2.188,15.063,-14.625
0.950,0.340,-0.680,-2.688,11.500,-1.687
0.950,0.340,-0.680,-2.688,11.500,-1.687
0.930,0.910,-0.520,-6.250,5.312,10.500
0.540,0.430,-0.520,-5.125,0.000,12.625
0.200,-0.040,-0.370,-0.812,-2.750,4.875
0.200,-0.040,-0.370,0.875,-5.000,2.500
0.080,-0.530,-0.100,0.875,-5.000,2.500
0.220,-0.600,-0.060,0.437,-6.625,8.938
0.220,-0.600,-0.060,0.437,-6.625,8.938
0.180,-0.090,-0.020,0.562,-5.062,11.750
-0.190,-0.010,-0.390,0.062,5.000,12.375
-0.700,0.210,-0.750,-0.562,14.563,14.188
-0.700,0.210,-0.750,-0.562,14.563,14.188
-1.480,1.010,-1.680,1.562,16.250,10.250
-1.480,1.010,-1.680,6.062,7.937,0.375
-0.920,1.290,-1.450,6.062,7.937,0.375
-0.660,0.900,-1.100,9.438,-6.125,-13.375
-0.660,0.900,-1.100,12.125,-18.187,-26.625
-0.080,0.210,-0.390,12.125,-18.187,-26.625
0.160,-1.420,0.920,11.875,-22.000,-34.625
-0.280,-1.640,0.850,5.250,-17.500,-25.750
-0.280,-1.640,0.850,5.250,-17.500,-25.750
-0.690,-1.630,0.360,1.750,-6.625,-10.625
-0.690,-1.630,0.360,2.563,4.437,1.062
-0.990,-1.220,-0.050,2.563,4.437,1.062
-1.610,0.030,-1.170,2.688,11.500,11.938
-1.090,0.660,-1.180,2.313,10.750,22.812
-0.650,0.860,-1.010,3.250,7.062,26.750
-0.650,0.860,-1.010,5.562,0.062,22.625
-0.420,0.700,-0.760,5.562,0.062,22.625
0.570,0.430,-0.260,10.500,-8.188,14.875
0.570,0.430,-0.260,10.500,-8.188,14.875
0.910,0.550,-0.070,10.625,-12.375,10.063
0.940,0.760,-0.130,5.312,-6.250,12.250
0.880,0.800,-0.290,4.187,0.312,12.750
0.880,0.800,-0.290,4.187,0.312,12.750
0.700,0.800,-0.830,8.438,1.875,0.562
0.700,0.800,-0.830,8.438,1.875,0.562
0.770,0.950,-0.770,8.438,1.875,0.562
0.530,1.100,-0.850,5.500,1.937,-3.125
0.530,1.100,-0.850,5.500,1.937,-3.125
0.300,1.180,-1.090,0.312,8.875,-6.187
-0.180,0.770,-1.000,2.375,4.812,-14.313
-0.180,0.770,-1.000,2.375,4.812,-14.313
-0.080,0.540,-0.820,2.250,-0.812,-18.062
-0.080,0.540,-0.820,-0.625,-2.563,-16.750
0.060,0.400,-0.450,-0.625,-2.563,-16.750
0.250,-0.120,0.090,-4.312,2.000,-12.188
0.070,-0.350,0.040,-5.812,8.063,-7.000
-0.110,-0.340,-0.250,-4.625,11.500,-3.563
-0.110,-0.340,-0.250,-4.625,11.500,-3.563
-0.080,0.010,-0.240,-3.313,11.250,0.187
-0.080,0.010,-0.240,-0.187,9.000,4.187
0.040,-0.020,-0.200,-0.187,9.000,4.187
-0.330,-0.010,-0.370,2.500,10.000,6.125
-0.490,0.100,-0.750,5.812,9.563,5.625
-0.490,0.100,-0.750,6.312,3.938,4.062
-0.620,0.310,-1.070,6.312,3.938,4.062
-0.270,0.370,-0.870,2.500,-0.687,3.313
-0.270,0.370,-0.870,2.500,-0.687,3.313
-0.100,0.260,-0.560,-0.375,-4.500,2.375
0.100,0.060,-0.430,-1.750,-4.562,1.062
0.100,0.060,-0.430,-3.125,-2.438,0.750
0.170,-0.410,-0.240,-3.125,-2.438,0.750
0.320,-0.380,-0.070,-3.625,0.937,1.500
0.320,-0.380,-0.070,-1.312,3.750,2.875
0.320,-0.250,0.000,-1.312,3.750,2.875
0.410,-0.080,-0.070,2.188,6.625,2.625

-3.600,0.020,-0.260,0.187,-2.313,-9.438
-3.600,0.020,-0.260,0.187,-2.313,-9.438
-6.520,0.620,-0.990,-1.000,4.750,-14.313
-10.540,0.500,-1.580,-0.625,16.437,-24.062
-10.540,0.500,-1.580,-9.875,33.313,-35.438
-14.720,0.460,-2.460,-9.875,33.313,-35.438
-18.620,0.450,-2.510,-22.250,44.250,-50.063
-18.620,0.450,-2.510,-22.250,44.250,-50.063
-19.830,-1.000,-3.130,-21.625,37.375,-64.500
-21.490,-4.110,-3.940,-5.375,13.563,-59.438
-22.600,-6.960,-4.440,15.250,-17.437,-32.563
-22.600,-6.960,-4.440,15.250,-17.437,-32.563
-18.200,-7.810,-1.060,13.250,-62.000,-0.812
-18.200,-7.810,-1.060,10.250,-104.938,26.875
-14.180,-7.970,1.260,10.250,-104.938,26.875
-11.000,-7.140,3.750,24.000,-130.687,58.688
-5.510,-1.290,3.210,35.875,-115.125,87.813
-5.510,-1.290,3.210,35.875,-115.125,87.813
-4.430,2.570,1.080,38.938,-75.750,105.750
-4.100,6.130,-1.110,26.312,-49.813,112.063
-4.100,6.130,-1.110,26.312,-49.813,112.063
-4.630,8.490,-4.140,-3.000,-39.875,95.438
-4.630,8.490,-4.140,-36.563,-44.750,59.250
-7.560,8.200,-11.270,-36.563,-44.750,59.250
-7.660,6.120,-11.610,-71.750,-109.250,5.125
-5.620,3.920,-8.230,-100.500,-188.250,-64.438
-2.840,0.850,-3.800,-103.625,-220.562,-136.812
-2.840,0.850,-3.800,-103.625,-220.562,-136.812
1.780,-6.330,1.300,-94.813,-210.125,-175.062
1.780,-6.330,1.300,-78.688,-175.187,-155.250
1.200,-8.330,3.080,-78.688,-175.187,-155.250
1.480,-6.320,4.650,-71.938,-140.437,-100.313
3.110,-2.330,5.040,-66.000,-98.313,-51.500
3.110,-2.330,5.040,-30.937,-46.438,-25.187
3.860,3.360,1.720,-30.937,-46.438,-25.187
2.800,3.180,-0.790,10.563,-9.125,-17.687
2.800,3.180,-0.790,53.938,0.812,-34.000
0.400,4.100,-4.900,53.938,0.812,-34.000
-0.270,3.430,-8.580,98.375,-26.250,-79.188
-0.920,-0.570,-14.430,143.312,-67.438,-127.063
-0.920,-0.570,-14.430,143.312,-67.438,-127.063
0.590,-1.220,-14.180,154.125,-119.750,-141.125
3.830,-0.090,-11.350,109.938,-193.062,-105.313
3.830,-0.090,-11.350,44.625,-214.000,-41.188
10.480,1.600,-3.570,44.625,-214.000,-41.188
11.040,3.520,-0.780,-15.438,-180.312,33.125
11.270,3.810,0.150,-61.375,-134.062,86.750
11.270,3.810,0.150,-66.688,-115.063,103.625
12.000,2.860,0.930,-66.688,-115.063,103.625
10.910,-0.080,1.310,-35.813,-92.750,111.438
10.910,-0.080,1.310,20.187,-66.500,102.500
9.170,-3.270,0.210,20.187,-66.500,102.500
7.940,-4.890,-0.990,83.688,-64.500,89.375
7.780,-3.880,-3.610,137.250,-73.688,75.625
7.780,-3.880,-3.610,137.250,-73.688,75.625
9.560,3.100,-6.800,164.000,-93.625,63.375
9.560,3.100,-6.800,152.312,-113.438,39.000
11.290,5.830,-6.550,152.312,-113.438,39.000
11.680,6.250,-5.960,112.188,-110.563,9.500
11.140,5.040,-4.350,67.625,-90.375,-11.688
11.140,5.040,-4.350,67.625,-90.375,-11.688
10.250,0.510,-0.500,23.125,-67.500,-9.750
10.040,-1.190,1.130,-7.937,-45.188,13.313
10.040,-1.190,1.130,-7.937,-45.188,13.313
9.880,-1.890,2.370,-26.437,-26.312,42.688
9.880,-1.890,2.370,-26.437,-26.312,42.688
9.420,-1.950,2.090,-31.812,-33.625,75.313
9.820,-0.400,1.370,-23.500,-26.875,90.250
10.060,0.820,1.130,-2.375,-7.812,79.750
10.060,0.820,1.130,-2.375,-7.812,79.750
9.810,1.480,0.270,28.187,0.750,54.188
9.810,1.480,0.270,52.563,1.250,26.375
9.150,1.340,-0.720,52.563,1.250,26.375
9.190,2.260,-1.500,51.813,1.062,8.125
9.960,3.120,-1.100,36.375,3.500,-1.062
9.960,3.120,-1.100,36.375,3.500,-1.062
9.950,3.690,-0.400,21.562,15.563,-2.875
9.950,3.690,-0.400,7.625,28.500,-11.000
9.990,2.760,0.100,7.625,28.500,-11.000
9.970,2.330,-0.460,-1.000,27.437,-11.563
9.970,2.330,-0.460,-9.750,38.000,-15.438
7.850,1.460,-1.130,-9.750,38.000,-15.438
6.100,1.110,-3.250,-20.812,44.063,-0.375
4.570,-1.920,-3.450,-17.625,-15.063,-16.562
4.570,-1.920,-3.450,-17.625,-15.063,-16.562
4.290,-2.370,-3.900,-13.250,-8.438,-14.938
4.290,-2.370,-3.900,-0.375,-11.563,-1.125
4.280,-2.230,-3.680,-0.375,-11.563,-1.125
5.990,-1.040,-2.460,12.625,-21.250,6.687
10.490,5.530,-0.250,10.375,-17.437,-4.062
10.490,5.530,-0.250,8.500,22.687,-52.438
9.050,6.470,-1.750,8.500,22.687,-52.438
7.280,4.780,-3.890,12.438,53.125,-117.125
7.280,4.780,-3.890,12.438,53.125,-117.125
4.670,2.720,-5.940,-0.375,62.125,-160.250
2.290,-2.470,-4.730,-25.875,61.000,-173.312
2.290,-2.470,-4.730,-25.875,61.000,-173.312
0.220,-4.150,-5.190,-46.688,73.063,-142.937
-0.780,-5.850,-5.420,-22.750,79.188,-93.750
-0.780,-5.850,-5.420,10.250,63.625,-44.188
-0.200,-6.830,-4.380,10.250,63.625,-44.188
0.230,-1.850,-1.180,18.562,40.125,3.500
0.230,-1.850,-1.180,13.375,14.875,59.125
3.720,1.490,1.880,13.375,14.875,59.125
7.980,4.040,3.300,-18.562,25.062,81.000
1.810,5.330,-4.550,-42.313,84.000,38.438
1.810,5.330,-4.550,-41.688,141.500,-24.187
-2.080,3.820,-8.330,-41.688,141.500,-24.187
-2.800,2.790,-9.590,-44.500,140.312,-59.688
-2.800,2.790,-9.590,-53.375,118.688,-70.125
-2.360,2.160,-9.410,-53.375,118.688,-70.125
-0.830,1.790,-6.820,-36.563,87.250,-76.000
-0.510,1.820,-4.880,-11.250,50.688,-83.000
-0.510,1.820,-4.880,-4.500,21.812,-80.063
-1.160,1.750,-2.240,-4.500,21.812,-80.063
-1.730,-0.200,-0.680,-16.312,11.750,-56.313
-1.730,-0.200,-0.680,-16.312,11.750,-56.313
-1.920,-1.310,0.300,-33.625,24.562,-9.813
-2.970,-0.510,-0.290,-55.563,41.375,28.312
-3.890,-0.420,-1.030,-60.375,61.938,50.500
-3.890,-0.420,-1.030,-60.375,61.938,50.500
-4.060,-0.300,-1.970,-52.188,77.625,67.688
-4.060,-0.300,-1.970,-47.813,81.188,81.813
-3.480,1.300,-3.630,-47.813,81.188,81.813
-3.150,1.380,-3.700,-32.875,68.250,77.000
-2.710,1.690,-4.960,-13.000,42.875,61.250
-2.260,2.650,-5.770,-2.750,10.063,45.000
-2.260,2.650,-5.770,-2.750,10.063,45.000
2.120,3.700,-1.980,-1.875,-16.500,27.500
2.120,3.700,-1.980,-21.375,-22.562,15.188
2.500,1.820,0.190,-21.375,-22.562,15.188
0.280,-0.890,1.800,-54.688,-17.750,12.313
-1.120,-4.230,3.420,-88.063,44.625,17.750
-1.120,-4.230,3.420,-104.188,124.813,56.000
-2.450,-5.170,2.170,-104.188,124.813,56.000
-3.490,-5.380,1.170,-88.938,169.562,100.750
-3.490,-5.380,1.170,-88.938,169.562,100.750
-3.730,-4.210,-0.610,-57.688,151.562,128.625
